pos,correct_response,condition,counter_balancing.thisRepN,counter_balancing.thisTrialN,counter_balancing.thisN,counter_balancing.thisIndex,trials.thisRepN,trials.thisTrialN,trials.thisN,trials.thisIndex,trials_2.thisRepN,trials_2.thisTrialN,trials_2.thisN,trials_2.thisIndex,thisRow.t,notes,instruction.started,instruction.stopped,key_resp_2.keys,key_resp_2.rt,key_resp_2.duration,trial.started,key_resp.started,trial.stopped,key_resp.keys,key_resp.corr,key_resp.rt,key_resp.duration,final.started,key_resp_3.started,final.stopped,key_resp_3.keys,key_resp_3.corr,key_resp_3.rt,key_resp_3.duration,participant,session,date,expName,psychopyVersion,frameRate,expStart,
,,,,,,,,,,,,,,,,,0.012274208012968302,6.4106950830318965,space,6.371022000035737,None,,,,,,,,,,,,,,,kruti,001,2023-10-18_12h19.52.487,oct 9 class,2023.2.2,119.64250724903314,2023-10-18 12h20.00.654260 +0530,
150,v,random,0,0,0,0,0,0,0,3,,,,,6.455548957979772,,,,,,,6.426604125008453,0.5998687089886516,8.33571725001093,v,1,1.3188430000445805,None,,,,,,,,kruti,001,2023-10-18_12h19.52.487,oct 9 class,2023.2.2,119.64250724903314,2023-10-18 12h20.00.654260 +0530,
-50,x,random,0,0,0,0,0,1,1,1,,,,,8.344806042034179,,,,,,,8.336778666998725,0.607904625008814,9.762210167013109,x,1,0.8114265840267763,None,,,,,,,,kruti,001,2023-10-18_12h19.52.487,oct 9 class,2023.2.2,119.64250724903314,2023-10-18 12h20.00.654260 +0530,
-50,x,random,0,0,0,0,0,2,2,1,,,,,9.771447958017234,,,,,,,9.763795082981233,0.605213625007309,10.928642333019525,x,1,0.5560389999882318,None,,,,,,,,kruti,001,2023-10-18_12h19.52.487,oct 9 class,2023.2.2,119.64250724903314,2023-10-18 12h20.00.654260 +0530,
50,c,random,0,0,0,0,0,3,3,2,,,,,10.940455292002298,,,,,,,10.929397125029936,0.6060497090220451,12.086025417025667,c,1,0.5477148749632761,None,,,,,,,,kruti,001,2023-10-18_12h19.52.487,oct 9 class,2023.2.2,119.64250724903314,2023-10-18 12h20.00.654260 +0530,
-150,z,random,0,0,0,0,1,0,4,0,,,,,12.094590082997456,,,,,,,12.086730166978668,0.6079971250146627,13.245341208006721,z,1,0.5468411670299247,None,,,,,,,,kruti,001,2023-10-18_12h19.52.487,oct 9 class,2023.2.2,119.64250724903314,2023-10-18 12h20.00.654260 +0530,
-150,z,random,0,0,0,0,1,1,5,0,,,,,13.253237750031985,,,,,,,13.246051500027534,0.6065237920265645,14.345417417003773,z,1,0.4895557080162689,None,,,,,,,,kruti,001,2023-10-18_12h19.52.487,oct 9 class,2023.2.2,119.64250724903314,2023-10-18 12h20.00.654260 +0530,
-150,z,random,0,0,0,0,1,2,6,0,,,,,14.353543042030651,,,,,,,14.346139750035945,0.606482875009533,15.311357708007563,z,1,0.3539728330215439,None,,,,,,,,kruti,001,2023-10-18_12h19.52.487,oct 9 class,2023.2.2,119.64250724903314,2023-10-18 12h20.00.654260 +0530,
150,v,random,0,0,0,0,1,3,7,3,,,,,15.319082500005607,,,,,,,15.31205237499671,0.5994606669992208,16.96934433298884,v,1,1.0516268750070594,None,,,,,,,,kruti,001,2023-10-18_12h19.52.487,oct 9 class,2023.2.2,119.64250724903314,2023-10-18 12h20.00.654260 +0530,
50,c,random,0,0,0,0,2,0,8,2,,,,,16.9780894999858,,,,,,,16.970051917014644,0.5992865419830196,18.20306500000879,c,1,0.6287020000163466,None,,,,,,,,kruti,001,2023-10-18_12h19.52.487,oct 9 class,2023.2.2,119.64250724903314,2023-10-18 12h20.00.654260 +0530,
150,v,random,0,0,0,0,2,1,9,3,,,,,18.211674500023946,,,,,,,18.20378595800139,0.5990337500115857,19.47958045802079,v,1,0.6672891660127789,None,,,,,,,,kruti,001,2023-10-18_12h19.52.487,oct 9 class,2023.2.2,119.64250724903314,2023-10-18 12h20.00.654260 +0530,
-50,x,random,0,0,0,0,2,2,10,1,,,,,19.48607062501833,,,,,,,19.480306125013158,0.6057222919771448,21.019672833033837,x,1,0.9320559579646215,None,,,,,,,,kruti,001,2023-10-18_12h19.52.487,oct 9 class,2023.2.2,119.64250724903314,2023-10-18 12h20.00.654260 +0530,
150,v,random,0,0,0,0,2,3,11,3,,,,,21.028331291978247,,,,,,,21.020384250034112,0.6079546670080163,22.39527070801705,v,1,0.7588445420260541,None,,,,,,,,kruti,001,2023-10-18_12h19.52.487,oct 9 class,2023.2.2,119.64250724903314,2023-10-18 12h20.00.654260 +0530,
50,c,random,0,0,0,0,3,0,12,2,,,,,22.403242083033547,,,,,,,22.39596100000199,0.606644082989078,23.604636792035308,c,1,0.5934741250239313,None,,,,,,,,kruti,001,2023-10-18_12h19.52.487,oct 9 class,2023.2.2,119.64250724903314,2023-10-18 12h20.00.654260 +0530,
50,c,random,0,0,0,0,3,1,13,2,,,,,23.61193120799726,,,,,,,23.605349541991018,0.6058039579656906,24.66275866702199,c,1,0.44209587504155934,None,,,,,,,,kruti,001,2023-10-18_12h19.52.487,oct 9 class,2023.2.2,119.64250724903314,2023-10-18 12h20.00.654260 +0530,
-150,z,random,0,0,0,0,3,2,14,0,,,,,24.669268292025663,,,,,,,24.663475874986034,0.6058598750387318,25.936211167019792,z,1,0.6604717909940518,None,,,,,,,,kruti,001,2023-10-18_12h19.52.487,oct 9 class,2023.2.2,119.64250724903314,2023-10-18 12h20.00.654260 +0530,
-150,z,random,0,0,0,0,3,3,15,0,,,,,25.94513162499061,,,,,,,25.93699345801724,0.6075667910045013,27.02881658298429,z,1,0.48106550000375137,None,,,,,,,,kruti,001,2023-10-18_12h19.52.487,oct 9 class,2023.2.2,119.64250724903314,2023-10-18 12h20.00.654260 +0530,
150,v,random,0,0,0,0,4,0,16,3,,,,,27.036757667025086,,,,,,,27.02954045799561,0.5991519590024836,29.702533792005852,v,1,2.0699821669841185,None,,,,,,,,kruti,001,2023-10-18_12h19.52.487,oct 9 class,2023.2.2,119.64250724903314,2023-10-18 12h20.00.654260 +0530,
-50,x,random,0,0,0,0,4,1,17,1,,,,,29.711076791980304,,,,,,,29.70329216698883,0.5994862919906154,31.02034366701264,x,1,0.7134309170069173,None,,,,,,,,kruti,001,2023-10-18_12h19.52.487,oct 9 class,2023.2.2,119.64250724903314,2023-10-18 12h20.00.654260 +0530,
-150,z,random,0,0,0,0,4,2,18,0,,,,,31.028530291980132,,,,,,,31.02102254203055,0.6075149159878492,32.14572637499077,z,1,0.5081821249914356,None,,,,,,,,kruti,001,2023-10-18_12h19.52.487,oct 9 class,2023.2.2,119.64250724903314,2023-10-18 12h20.00.654260 +0530,
-50,x,random,0,0,0,0,4,3,19,1,,,,,32.15233879198786,,,,,,,32.1464493329986,0.6062227500369772,33.32903158297995,x,1,0.5713281669886783,None,,,,,,,,kruti,001,2023-10-18_12h19.52.487,oct 9 class,2023.2.2,119.64250724903314,2023-10-18 12h20.00.654260 +0530,
50,c,random,0,0,0,0,5,0,20,2,,,,,33.33688950003125,,,,,,,33.32973941700766,0.6062256250297651,34.36959358298918,c,1,0.4322976670227945,None,,,,,,,,kruti,001,2023-10-18_12h19.52.487,oct 9 class,2023.2.2,119.64250724903314,2023-10-18 12h20.00.654260 +0530,
-150,z,random,0,0,0,0,5,1,21,0,,,,,34.378412167017814,,,,,,,34.370332708000205,0.6080927090370096,35.512593333027326,z,1,0.5292392919654958,None,,,,,,,,kruti,001,2023-10-18_12h19.52.487,oct 9 class,2023.2.2,119.64250724903314,2023-10-18 12h20.00.654260 +0530,
-50,x,random,0,0,0,0,5,2,22,1,,,,,35.52062520798063,,,,,,,35.513311917020474,0.6063855420215987,36.64495887502562,x,1,0.5180093749659136,None,,,,,,,,kruti,001,2023-10-18_12h19.52.487,oct 9 class,2023.2.2,119.64250724903314,2023-10-18 12h20.00.654260 +0530,
50,c,random,0,0,0,0,5,3,23,2,,,,,36.65252766699996,,,,,,,36.64566554198973,0.6023193330038339,38.00314908300061,c,1,0.7525410419912077,None,,,,,,,,kruti,001,2023-10-18_12h19.52.487,oct 9 class,2023.2.2,119.64250724903314,2023-10-18 12h20.00.654260 +0530,
150,v,random,0,0,0,0,6,0,24,3,,,,,38.01181066699792,,,,,,,38.0039451670018,0.6077865000115708,39.036905832996126,v,1,0.42211158300051466,None,,,,,,,,kruti,001,2023-10-18_12h19.52.487,oct 9 class,2023.2.2,119.64250724903314,2023-10-18 12h20.00.654260 +0530,
-50,x,random,0,0,0,0,6,1,25,1,,,,,39.0458317080047,,,,,,,39.037624625023454,0.6070905000087805,40.278371250024065,x,1,0.6258891670149751,None,,,,,,,,kruti,001,2023-10-18_12h19.52.487,oct 9 class,2023.2.2,119.64250724903314,2023-10-18 12h20.00.654260 +0530,
50,c,random,0,0,0,0,6,2,26,2,,,,,40.28592612501234,,,,,,,40.27904866699828,0.5996282910346054,41.40319845802151,c,1,0.523281833040528,None,,,,,,,,kruti,001,2023-10-18_12h19.52.487,oct 9 class,2023.2.2,119.64250724903314,2023-10-18 12h20.00.654260 +0530,
50,c,random,0,0,0,0,6,3,27,2,,,,,41.41178620798746,,,,,,,41.40391462499974,0.5991249170037918,42.512442417035345,c,1,0.5067552499822341,None,,,,,,,,kruti,001,2023-10-18_12h19.52.487,oct 9 class,2023.2.2,119.64250724903314,2023-10-18 12h20.00.654260 +0530,
-50,x,random,0,0,0,0,7,0,28,1,,,,,42.520443417015485,,,,,,,42.51314875000389,0.605836124974303,43.520505083026364,x,1,0.3980816670227796,None,,,,,,,,kruti,001,2023-10-18_12h19.52.487,oct 9 class,2023.2.2,119.64250724903314,2023-10-18 12h20.00.654260 +0530,
-150,z,random,0,0,0,0,7,1,29,0,,,,,43.52957008301746,,,,,,,43.521358750003856,0.6072717080242,44.696038499998394,z,1,0.5669564169947989,None,,,,,,,,kruti,001,2023-10-18_12h19.52.487,oct 9 class,2023.2.2,119.64250724903314,2023-10-18 12h20.00.654260 +0530,
-150,z,random,0,0,0,0,7,2,30,0,,,,,44.703719792014454,,,,,,,44.69674595800461,0.6061454999726266,45.71220633300254,z,1,0.40165200002957135,None,,,,,,,,kruti,001,2023-10-18_12h19.52.487,oct 9 class,2023.2.2,119.64250724903314,2023-10-18 12h20.00.654260 +0530,
50,c,random,0,0,0,0,7,3,31,2,,,,,45.72015237499727,,,,,,,45.71291908301646,0.599035040999297,46.77009037497919,c,1,0.4523986669955775,None,,,,,,,,kruti,001,2023-10-18_12h19.52.487,oct 9 class,2023.2.2,119.64250724903314,2023-10-18 12h20.00.654260 +0530,
-50,x,random,0,0,0,0,8,0,32,1,,,,,46.77878412499558,,,,,,,46.770834291994106,0.6079432090045884,47.79559366701869,x,1,0.4097273329971358,None,,,,,,,,kruti,001,2023-10-18_12h19.52.487,oct 9 class,2023.2.2,119.64250724903314,2023-10-18 12h20.00.654260 +0530,
150,v,random,0,0,0,0,8,1,33,3,,,,,47.80378620798001,,,,,,,47.79631262499606,0.6004299999913201,48.878393958031666,v,1,0.4744893339811824,None,,,,,,,,kruti,001,2023-10-18_12h19.52.487,oct 9 class,2023.2.2,119.64250724903314,2023-10-18 12h20.00.654260 +0530,
-150,z,random,0,0,0,0,8,2,34,0,,,,,48.88617566699395,,,,,,,48.879103792016394,0.5996330420020968,50.03574670798844,z,1,0.5518729580217041,None,,,,,,,,kruti,001,2023-10-18_12h19.52.487,oct 9 class,2023.2.2,119.64250724903314,2023-10-18 12h20.00.654260 +0530,
-50,x,random,0,0,0,0,8,3,35,1,,,,,50.04424979200121,,,,,,,50.036492499988526,0.5998331250157207,51.14518641697941,x,1,0.5025102500221692,None,,,,,,,,kruti,001,2023-10-18_12h19.52.487,oct 9 class,2023.2.2,119.64250724903314,2023-10-18 12h20.00.654260 +0530,
-50,x,random,0,0,0,0,9,0,36,1,,,,,51.15296258300077,,,,,,,51.14588637498673,0.5995686249807477,52.162739416991826,x,1,0.416686833021231,None,,,,,,,,kruti,001,2023-10-18_12h19.52.487,oct 9 class,2023.2.2,119.64250724903314,2023-10-18 12h20.00.654260 +0530,
50,c,random,0,0,0,0,9,1,37,2,,,,,52.170794582983945,,,,,,,52.16345133300638,0.6063334590289742,53.22916849999456,c,1,0.4556148339761421,None,,,,,,,,kruti,001,2023-10-18_12h19.52.487,oct 9 class,2023.2.2,119.64250724903314,2023-10-18 12h20.00.654260 +0530,
150,v,random,0,0,0,0,9,2,38,3,,,,,53.23744120798074,,,,,,,53.22991512500448,0.6058541670208797,54.253378792025615,v,1,0.412977583007887,None,,,,,,,,kruti,001,2023-10-18_12h19.52.487,oct 9 class,2023.2.2,119.64250724903314,2023-10-18 12h20.00.654260 +0530,
50,c,random,0,0,0,0,9,3,39,2,,,,,54.26251270802459,,,,,,,54.25408962502843,0.5990216670325026,55.22023720800644,c,1,0.36655854200944304,None,,,,,,,,kruti,001,2023-10-18_12h19.52.487,oct 9 class,2023.2.2,119.64250724903314,2023-10-18 12h20.00.654260 +0530,
-50,x,random,0,0,0,0,10,0,40,1,,,,,55.228921542002354,,,,,,,55.22093620803207,0.6076678750105202,56.54570324998349,x,1,0.7098948750062846,None,,,,,,,,kruti,001,2023-10-18_12h19.52.487,oct 9 class,2023.2.2,119.64250724903314,2023-10-18 12h20.00.654260 +0530,
50,c,random,0,0,0,0,10,1,41,2,,,,,56.55398216698086,,,,,,,56.5464280830347,0.5990180000080727,57.49563083302928,c,1,0.3474644999951124,None,,,,,,,,kruti,001,2023-10-18_12h19.52.487,oct 9 class,2023.2.2,119.64250724903314,2023-10-18 12h20.00.654260 +0530,
-150,z,random,0,0,0,0,10,2,42,0,,,,,57.503625500015914,,,,,,,57.496334708004724,0.5990834999829531,58.70430724998005,z,1,0.6004606669885106,None,,,,,,,,kruti,001,2023-10-18_12h19.52.487,oct 9 class,2023.2.2,119.64250724903314,2023-10-18 12h20.00.654260 +0530,
-50,x,random,0,0,0,0,10,3,43,1,,,,,58.71173045801697,,,,,,,58.70508141699247,0.6069693330209702,59.85327712498838,x,1,0.5389653330203146,None,,,,,,,,kruti,001,2023-10-18_12h19.52.487,oct 9 class,2023.2.2,119.64250724903314,2023-10-18 12h20.00.654260 +0530,
150,v,random,0,0,0,0,11,0,44,3,,,,,59.86200758302584,,,,,,,59.854000583000015,0.6076401669997722,61.352847457979806,v,1,0.8888498329906724,None,,,,,,,,kruti,001,2023-10-18_12h19.52.487,oct 9 class,2023.2.2,119.64250724903314,2023-10-18 12h20.00.654260 +0530,
150,v,random,0,0,0,0,11,1,45,3,,,,,61.361058333015535,,,,,,,61.35352208302356,0.6083903330145404,62.402394375007134,v,1,0.4340659159934148,None,,,,,,,,kruti,001,2023-10-18_12h19.52.487,oct 9 class,2023.2.2,119.64250724903314,2023-10-18 12h20.00.654260 +0530,
-50,x,random,0,0,0,0,11,2,46,1,,,,,62.411646542022936,,,,,,,62.40306658303598,0.599348290998023,63.612356333003845,x,1,0.6046809169929475,None,,,,,,,,kruti,001,2023-10-18_12h19.52.487,oct 9 class,2023.2.2,119.64250724903314,2023-10-18 12h20.00.654260 +0530,
-150,z,random,0,0,0,0,11,3,47,0,,,,,63.61999937501969,,,,,,,63.613060375035275,0.5991640419815667,64.73629595799139,z,1,0.5211168329697102,None,,,,,,,,kruti,001,2023-10-18_12h19.52.487,oct 9 class,2023.2.2,119.64250724903314,2023-10-18 12h20.00.654260 +0530,
50,c,random,0,0,0,0,12,0,48,2,,,,,64.7449210420018,,,,,,,64.73697004199494,0.5991540420218371,65.79509729199344,c,1,0.45450450002681464,None,,,,,,,,kruti,001,2023-10-18_12h19.52.487,oct 9 class,2023.2.2,119.64250724903314,2023-10-18 12h20.00.654260 +0530,
50,c,random,0,0,0,0,12,1,49,2,,,,,65.80239395803073,,,,,,,65.79575874999864,0.5998050000052899,66.92086570803076,c,1,0.5167541250120848,None,,,,,,,,kruti,001,2023-10-18_12h19.52.487,oct 9 class,2023.2.2,119.64250724903314,2023-10-18 12h20.00.654260 +0530,
150,v,random,0,0,0,0,12,2,50,3,,,,,66.92782745801378,,,,,,,66.92155720799929,0.6067219579708762,68.00297545798821,v,1,0.47231220902176574,None,,,,,,,,kruti,001,2023-10-18_12h19.52.487,oct 9 class,2023.2.2,119.64250724903314,2023-10-18 12h20.00.654260 +0530,
-50,x,random,0,0,0,0,12,3,51,1,,,,,68.01165995799238,,,,,,,68.00364779197844,0.6004886669688858,69.3194051249884,x,1,0.7131524999858811,None,,,,,,,,kruti,001,2023-10-18_12h19.52.487,oct 9 class,2023.2.2,119.64250724903314,2023-10-18 12h20.00.654260 +0530,
50,c,random,0,0,0,0,13,0,52,2,,,,,69.328311958001,,,,,,,69.32007212500321,0.5991041249944828,70.38870254199719,c,1,0.4597558749956079,None,,,,,,,,kruti,001,2023-10-18_12h19.52.487,oct 9 class,2023.2.2,119.64250724903314,2023-10-18 12h20.00.654260 +0530,
150,v,random,0,0,0,0,13,1,53,3,,,,,70.39598716702312,,,,,,,70.38943716703216,0.6057497499859892,71.47906329203397,v,1,0.47502316697500646,None,,,,,,,,kruti,001,2023-10-18_12h19.52.487,oct 9 class,2023.2.2,119.64250724903314,2023-10-18 12h20.00.654260 +0530,
-150,z,random,0,0,0,0,13,2,54,0,,,,,71.4864669580129,,,,,,,71.47973658301635,0.6059624580084346,72.66950670798542,z,1,0.5817887079901993,None,,,,,,,,kruti,001,2023-10-18_12h19.52.487,oct 9 class,2023.2.2,119.64250724903314,2023-10-18 12h20.00.654260 +0530,
-50,x,random,0,0,0,0,13,3,55,1,,,,,72.67829837498721,,,,,,,72.67019270802848,0.6079457090236247,73.76215445803246,x,1,0.47804250003537163,None,,,,,,,,kruti,001,2023-10-18_12h19.52.487,oct 9 class,2023.2.2,119.64250724903314,2023-10-18 12h20.00.654260 +0530,
50,c,random,0,0,0,0,14,0,56,2,,,,,73.76959637500113,,,,,,,73.76284058298916,0.6064472910366021,74.69563754199771,c,1,0.3226877089473419,None,,,,,,,,kruti,001,2023-10-18_12h19.52.487,oct 9 class,2023.2.2,119.64250724903314,2023-10-18 12h20.00.654260 +0530,
-150,z,random,0,0,0,0,14,1,57,0,,,,,74.70297054201365,,,,,,,74.6963227079832,0.5990028330124915,75.81973962503253,z,1,0.521492916974239,None,,,,,,,,kruti,001,2023-10-18_12h19.52.487,oct 9 class,2023.2.2,119.64250724903314,2023-10-18 12h20.00.654260 +0530,
-150,z,random,0,0,0,0,14,2,58,0,,,,,75.82782829197822,,,,,,,75.82042995799566,0.607728875009343,76.96960454201326,z,1,0.5386385830352083,None,,,,,,,,kruti,001,2023-10-18_12h19.52.487,oct 9 class,2023.2.2,119.64250724903314,2023-10-18 12h20.00.654260 +0530,
150,v,random,0,0,0,0,14,3,59,3,,,,,76.97834600001806,,,,,,,76.97030970803462,0.6081478330306709,77.95280370803084,v,1,0.36827945802360773,None,,,,,,,,kruti,001,2023-10-18_12h19.52.487,oct 9 class,2023.2.2,119.64250724903314,2023-10-18 12h20.00.654260 +0530,
-50,x,random,0,0,0,0,15,0,60,1,,,,,77.96164958301233,,,,,,,77.95344637503149,0.6084597079898231,79.16961858299328,x,1,0.6016104589798488,None,,,,,,,,kruti,001,2023-10-18_12h19.52.487,oct 9 class,2023.2.2,119.64250724903314,2023-10-18 12h20.00.654260 +0530,
-50,x,random,0,0,0,0,15,1,61,1,,,,,79.17828250001185,,,,,,,79.17030795803294,0.6007948750047944,80.21234637498856,x,1,0.4354499580222182,None,,,,,,,,kruti,001,2023-10-18_12h19.52.487,oct 9 class,2023.2.2,119.64250724903314,2023-10-18 12h20.00.654260 +0530,
50,c,random,0,0,0,0,15,2,62,2,,,,,80.21994820801774,,,,,,,80.21303387498483,0.5996357909752987,81.31179654202424,c,1,0.4973096670000814,None,,,,,,,,kruti,001,2023-10-18_12h19.52.487,oct 9 class,2023.2.2,119.64250724903314,2023-10-18 12h20.00.654260 +0530,
150,v,random,0,0,0,0,15,3,63,3,,,,,81.31791816698387,,,,,,,81.31245116703212,0.5995238340110518,82.45279325003503,v,1,0.534151625004597,None,,,,,,,,kruti,001,2023-10-18_12h19.52.487,oct 9 class,2023.2.2,119.64250724903314,2023-10-18 12h20.00.654260 +0530,
150,v,random,0,0,0,0,16,0,64,3,,,,,82.46104475000175,,,,,,,82.4534807500313,0.5991051250020973,83.49544604198309,v,1,0.43656354199629277,None,,,,,,,,kruti,001,2023-10-18_12h19.52.487,oct 9 class,2023.2.2,119.64250724903314,2023-10-18 12h20.00.654260 +0530,
-150,z,random,0,0,0,0,16,1,65,0,,,,,83.50288508302765,,,,,,,83.49611275002826,0.599184958031401,84.64594966702862,z,1,0.5500493749859743,None,,,,,,,,kruti,001,2023-10-18_12h19.52.487,oct 9 class,2023.2.2,119.64250724903314,2023-10-18 12h20.00.654260 +0530,
-150,z,random,0,0,0,0,16,2,66,0,,,,,84.65201662498293,,,,,,,84.6466135000228,0.6052260829601437,85.86246604198823,z,1,0.6101327079813927,None,,,,,,,,kruti,001,2023-10-18_12h19.52.487,oct 9 class,2023.2.2,119.64250724903314,2023-10-18 12h20.00.654260 +0530,
-150,z,random,0,0,0,0,16,3,67,0,,,,,85.87020945799304,,,,,,,85.86314487498021,0.6059526249882765,86.98623749997932,z,1,0.5157044159714133,None,,,,,,,,kruti,001,2023-10-18_12h19.52.487,oct 9 class,2023.2.2,119.64250724903314,2023-10-18 12h20.00.654260 +0530,
50,c,random,0,0,0,0,17,0,68,2,,,,,86.99487695802236,,,,,,,86.98690524999984,0.608227499993518,88.19524420797825,c,1,0.5952684590010904,None,,,,,,,,kruti,001,2023-10-18_12h19.52.487,oct 9 class,2023.2.2,119.64250724903314,2023-10-18 12h20.00.654260 +0530,
150,v,random,0,0,0,0,17,1,69,3,,,,,88.2027452919865,,,,,,,88.19591941701947,0.6058775829733349,89.28660779201891,v,1,0.4833959590177983,None,,,,,,,,kruti,001,2023-10-18_12h19.52.487,oct 9 class,2023.2.2,119.64250724903314,2023-10-18 12h20.00.654260 +0530,
150,v,random,0,0,0,0,17,2,70,3,,,,,89.29448891698848,,,,,,,89.28727662499296,0.6078418749966659,90.55415195802925,v,1,0.6508681669947691,None,,,,,,,,kruti,001,2023-10-18_12h19.52.487,oct 9 class,2023.2.2,119.64250724903314,2023-10-18 12h20.00.654260 +0530,
-50,x,random,0,0,0,0,17,3,71,1,,,,,90.56103712500772,,,,,,,90.55483783298405,0.6072228330303915,91.78601579199312,x,1,0.621157374989707,None,,,,,,,,kruti,001,2023-10-18_12h19.52.487,oct 9 class,2023.2.2,119.64250724903314,2023-10-18 12h20.00.654260 +0530,
-150,z,random,0,0,0,0,18,0,72,0,,,,,91.79489883303177,,,,,,,91.78669958299724,0.5992320000077598,92.99566462502116,z,1,0.6062202079920098,None,,,,,,,,kruti,001,2023-10-18_12h19.52.487,oct 9 class,2023.2.2,119.64250724903314,2023-10-18 12h20.00.654260 +0530,
150,v,random,0,0,0,0,18,1,73,3,,,,,93.0032378329779,,,,,,,92.99632054200629,0.5992494999663904,94.1450700830319,v,1,0.547256916994229,None,,,,,,,,kruti,001,2023-10-18_12h19.52.487,oct 9 class,2023.2.2,119.64250724903314,2023-10-18 12h20.00.654260 +0530,
150,v,random,0,0,0,0,18,2,74,3,,,,,94.15259975002846,,,,,,,94.14579545799643,0.5995867500314489,95.24554124998394,v,1,0.4943778329761699,None,,,,,,,,kruti,001,2023-10-18_12h19.52.487,oct 9 class,2023.2.2,119.64250724903314,2023-10-18 12h20.00.654260 +0530,
150,v,random,0,0,0,0,18,3,75,3,,,,,95.25305254198611,,,,,,,95.24621837498853,0.5990904580103233,96.24521491699852,v,1,0.3912824579747394,None,,,,,,,,kruti,001,2023-10-18_12h19.52.487,oct 9 class,2023.2.2,119.64250724903314,2023-10-18 12h20.00.654260 +0530,
150,v,random,0,0,0,0,19,0,76,3,,,,,96.25297129200771,,,,,,,96.24599149997812,0.5997917499626055,97.22071050002705,v,1,0.36664004198974,None,,,,,,,,kruti,001,2023-10-18_12h19.52.487,oct 9 class,2023.2.2,119.64250724903314,2023-10-18 12h20.00.654260 +0530,
150,v,random,0,0,0,0,19,1,77,3,,,,,97.22827045799932,,,,,,,97.22137841698714,0.6073177919606678,98.16924308298621,v,1,0.3336242079967633,None,,,,,,,,kruti,001,2023-10-18_12h19.52.487,oct 9 class,2023.2.2,119.64250724903314,2023-10-18 12h20.00.654260 +0530,
-50,x,random,0,0,0,0,19,2,78,1,,,,,98.17777087498689,,,,,,,98.16992050001863,0.5990785409812815,99.33619233302306,x,1,0.5633137080003507,None,,,,,,,,kruti,001,2023-10-18_12h19.52.487,oct 9 class,2023.2.2,119.64250724903314,2023-10-18 12h20.00.654260 +0530,
50,c,random,0,0,0,0,19,3,79,2,,,,,99.34499091701582,,,,,,,99.336872667016,0.5990205000271089,100.5361552920076,c,1,0.5955961670260876,None,,,,,,,,kruti,001,2023-10-18_12h19.52.487,oct 9 class,2023.2.2,119.64250724903314,2023-10-18 12h20.00.654260 +0530,
50,c,random,0,0,0,0,20,0,80,2,,,,,100.54490899998927,,,,,,,100.5368460000027,0.6083359589683823,101.65290570800425,c,1,0.5058369169710204,None,,,,,,,,kruti,001,2023-10-18_12h19.52.487,oct 9 class,2023.2.2,119.64250724903314,2023-10-18 12h20.00.654260 +0530,
150,v,random,0,0,0,0,20,1,81,3,,,,,101.66113395802677,,,,,,,101.65358300000662,0.6082402090542018,102.71932212501997,v,1,0.45207524998113513,None,,,,,,,,kruti,001,2023-10-18_12h19.52.487,oct 9 class,2023.2.2,119.64250724903314,2023-10-18 12h20.00.654260 +0530,
-50,x,random,0,0,0,0,20,2,82,1,,,,,102.72774358303286,,,,,,,102.71999758301536,0.6007520420243964,104.0455555000226,x,1,0.7181845839950256,None,,,,,,,,kruti,001,2023-10-18_12h19.52.487,oct 9 class,2023.2.2,119.64250724903314,2023-10-18 12h20.00.654260 +0530,
50,c,random,0,0,0,0,20,3,83,2,,,,,104.05307420803001,,,,,,,104.04624379199231,0.6061984170228243,105.16215570800705,c,1,0.5045782919623889,None,,,,,,,,kruti,001,2023-10-18_12h19.52.487,oct 9 class,2023.2.2,119.64250724903314,2023-10-18 12h20.00.654260 +0530,
-50,x,random,0,0,0,0,21,0,84,1,,,,,105.16942541702883,,,,,,,105.16283425001893,0.5991564170108177,106.48530775000108,x,1,0.7180462090182118,None,,,,,,,,kruti,001,2023-10-18_12h19.52.487,oct 9 class,2023.2.2,119.64250724903314,2023-10-18 12h20.00.654260 +0530,
-150,z,random,0,0,0,0,21,1,85,0,,,,,106.495078500011,,,,,,,106.485959291982,0.5998077499680221,107.66201245802222,z,1,0.5677393340156414,None,,,,,,,,kruti,001,2023-10-18_12h19.52.487,oct 9 class,2023.2.2,119.64250724903314,2023-10-18 12h20.00.654260 +0530,
-50,x,random,0,0,0,0,21,2,86,1,,,,,107.66955429199152,,,,,,,107.66268725000555,0.5992738750064746,108.71175499999663,x,1,0.44456758297747,None,,,,,,,,kruti,001,2023-10-18_12h19.52.487,oct 9 class,2023.2.2,119.64250724903314,2023-10-18 12h20.00.654260 +0530,
150,v,random,0,0,0,0,21,3,87,3,,,,,108.71935787500115,,,,,,,108.71245066699339,0.5999688329757191,109.81249012501212,v,1,0.4925425830297172,None,,,,,,,,kruti,001,2023-10-18_12h19.52.487,oct 9 class,2023.2.2,119.64250724903314,2023-10-18 12h20.00.654260 +0530,
-150,z,random,0,0,0,0,22,0,88,0,,,,,109.81991591700353,,,,,,,109.8131647920236,0.6077506660367362,110.80277204199228,z,1,0.3767352079739794,None,,,,,,,,kruti,001,2023-10-18_12h19.52.487,oct 9 class,2023.2.2,119.64250724903314,2023-10-18 12h20.00.654260 +0530,
150,v,random,0,0,0,0,22,1,89,3,,,,,110.8109430000186,,,,,,,110.80340725003043,0.5991227080230601,111.8787971669808,v,1,0.4700660420348868,None,,,,,,,,kruti,001,2023-10-18_12h19.52.487,oct 9 class,2023.2.2,119.64250724903314,2023-10-18 12h20.00.654260 +0530,
50,c,random,0,0,0,0,22,2,90,2,,,,,111.88641512498725,,,,,,,111.87948554201284,0.599163916951511,112.95270241698017,c,1,0.4678207079996355,None,,,,,,,,kruti,001,2023-10-18_12h19.52.487,oct 9 class,2023.2.2,119.64250724903314,2023-10-18 12h20.00.654260 +0530,
50,c,random,0,0,0,0,22,3,91,2,,,,,112.96157337498153,,,,,,,112.95337045798078,0.6085044170031324,113.90245358302491,c,1,0.33890825003618374,None,,,,,,,,kruti,001,2023-10-18_12h19.52.487,oct 9 class,2023.2.2,119.64250724903314,2023-10-18 12h20.00.654260 +0530,
150,v,random,0,0,0,0,23,0,92,3,,,,,113.91159700002754,,,,,,,113.90314687503269,0.6088423330220394,114.98610795801505,v,1,0.47098783298861235,None,,,,,,,,kruti,001,2023-10-18_12h19.52.487,oct 9 class,2023.2.2,119.64250724903314,2023-10-18 12h20.00.654260 +0530,
-50,x,random,0,0,0,0,23,1,93,1,,,,,114.994896624994,,,,,,,114.98678049998125,0.6082886660005897,116.29515508300392,x,1,0.691250333969947,None,,,,,,,,kruti,001,2023-10-18_12h19.52.487,oct 9 class,2023.2.2,119.64250724903314,2023-10-18 12h20.00.654260 +0530,
50,c,random,0,0,0,0,23,2,94,2,,,,,116.30258812499233,,,,,,,116.2958169580088,0.5994500829838216,117.74553695798386,c,1,0.8419001660076901,None,,,,,,,,kruti,001,2023-10-18_12h19.52.487,oct 9 class,2023.2.2,119.64250724903314,2023-10-18 12h20.00.654260 +0530,
-150,z,random,0,0,0,0,23,3,95,0,,,,,117.7530732920277,,,,,,,117.74620941700414,0.5990777090191841,119.08622808300424,z,1,0.7338687079609372,None,,,,,,,,kruti,001,2023-10-18_12h19.52.487,oct 9 class,2023.2.2,119.64250724903314,2023-10-18 12h20.00.654260 +0530,
150,v,random,0,0,0,0,24,0,96,3,,,,,119.0944665420102,,,,,,,119.08689758297987,0.6078433750080876,120.24542383302469,v,1,0.5461546250153333,None,,,,,,,,kruti,001,2023-10-18_12h19.52.487,oct 9 class,2023.2.2,119.64250724903314,2023-10-18 12h20.00.654260 +0530,
-150,z,random,0,0,0,0,24,1,97,0,,,,,120.25306054198882,,,,,,,120.2461087499978,0.5991283750045113,121.56224095798098,z,1,0.7114609999698587,None,,,,,,,,kruti,001,2023-10-18_12h19.52.487,oct 9 class,2023.2.2,119.64250724903314,2023-10-18 12h20.00.654260 +0530,
50,c,random,0,0,0,0,24,2,98,2,,,,,121.56967433303362,,,,,,,121.56292020803085,0.6060161669738591,122.85233566700481,c,1,0.6777918330044486,None,,,,,,,,kruti,001,2023-10-18_12h19.52.487,oct 9 class,2023.2.2,119.64250724903314,2023-10-18 12h20.00.654260 +0530,
150,v,random,0,0,0,0,24,3,99,3,,,,,122.86125533300219,,,,,,,122.85299370798748,0.5991226669866592,123.96948937501293,v,1,0.5160604590200819,None,,,,,,,,kruti,001,2023-10-18_12h19.52.487,oct 9 class,2023.2.2,119.64250724903314,2023-10-18 12h20.00.654260 +0530,
-150,z,random,0,0,0,0,25,0,100,0,,,,,123.97780004201923,,,,,,,123.97015316702891,0.6081710419966839,124.96938837500056,z,1,0.3873165419790894,None,,,,,,,,kruti,001,2023-10-18_12h19.52.487,oct 9 class,2023.2.2,119.64250724903314,2023-10-18 12h20.00.654260 +0530,
50,c,random,0,0,0,0,25,1,101,2,,,,,124.97828854201362,,,,,,,124.97007512499113,0.5990496249869466,126.14515629201196,c,1,0.5659810419892892,None,,,,,,,,kruti,001,2023-10-18_12h19.52.487,oct 9 class,2023.2.2,119.64250724903314,2023-10-18 12h20.00.654260 +0530,
-50,x,random,0,0,0,0,25,2,102,1,,,,,126.15127220802242,,,,,,,126.14582433301257,0.6061593749909662,127.252263625036,x,1,0.4947654170100577,None,,,,,,,,kruti,001,2023-10-18_12h19.52.487,oct 9 class,2023.2.2,119.64250724903314,2023-10-18 12h20.00.654260 +0530,
-150,z,random,0,0,0,0,25,3,103,0,,,,,127.26168258301914,,,,,,,127.25293370801955,0.5992901250137947,128.4692597920075,z,1,0.6110472080181353,None,,,,,,,,kruti,001,2023-10-18_12h19.52.487,oct 9 class,2023.2.2,119.64250724903314,2023-10-18 12h20.00.654260 +0530,
-150,z,random,0,0,0,0,26,0,104,0,,,,,128.47827033302747,,,,,,,128.46991816698574,0.6086154160439037,129.5456014579977,z,1,0.45946845901198685,None,,,,,,,,kruti,001,2023-10-18_12h19.52.487,oct 9 class,2023.2.2,119.64250724903314,2023-10-18 12h20.00.654260 +0530,
-50,x,random,0,0,0,0,26,1,105,1,,,,,129.5530502080219,,,,,,,129.5462585419882,0.5990157079650089,130.66197870799806,x,1,0.5090546249994077,None,,,,,,,,kruti,001,2023-10-18_12h19.52.487,oct 9 class,2023.2.2,119.64250724903314,2023-10-18 12h20.00.654260 +0530,
-50,x,random,0,0,0,0,26,2,106,1,,,,,130.6695085830288,,,,,,,130.66267275001155,0.5990618750220165,131.74547045800136,x,1,0.48019891703734174,None,,,,,,,,kruti,001,2023-10-18_12h19.52.487,oct 9 class,2023.2.2,119.64250724903314,2023-10-18 12h20.00.654260 +0530,
-50,x,random,0,0,0,0,26,3,107,1,,,,,131.75292929197894,,,,,,,131.74613662500633,0.6059402920072898,132.6859238750185,x,1,0.32998883398249745,None,,,,,,,,kruti,001,2023-10-18_12h19.52.487,oct 9 class,2023.2.2,119.64250724903314,2023-10-18 12h20.00.654260 +0530,
-50,x,random,0,0,0,0,27,0,108,1,,,,,132.69490295799915,,,,,,,132.6865974169923,0.6087452500360087,133.61908133298857,x,1,0.31845004099886864,None,,,,,,,,kruti,001,2023-10-18_12h19.52.487,oct 9 class,2023.2.2,119.64250724903314,2023-10-18 12h20.00.654260 +0530,
-150,z,random,0,0,0,0,27,1,109,0,,,,,133.62814049998997,,,,,,,133.61974799999734,0.5992135829874314,134.87871704198187,z,1,0.6567007920239121,None,,,,,,,,kruti,001,2023-10-18_12h19.52.487,oct 9 class,2023.2.2,119.64250724903314,2023-10-18 12h20.00.654260 +0530,
-150,z,random,0,0,0,0,27,2,110,0,,,,,134.88623512501363,,,,,,,134.8793832079973,0.6062650419771671,136.0122224999941,z,1,0.5193816669634543,None,,,,,,,,kruti,001,2023-10-18_12h19.52.487,oct 9 class,2023.2.2,119.64250724903314,2023-10-18 12h20.00.654260 +0530,
150,v,random,0,0,0,0,27,3,111,3,,,,,136.0197634170181,,,,,,,136.0128885420272,0.5991033750469796,137.09531754202908,v,1,0.4814405840006657,None,,,,,,,,kruti,001,2023-10-18_12h19.52.487,oct 9 class,2023.2.2,119.64250724903314,2023-10-18 12h20.00.654260 +0530,
-50,x,random,0,0,0,0,28,0,112,1,,,,,137.1015347079956,,,,,,,137.09599683299894,0.5993778749834746,138.2621040000231,x,1,0.5572420829557814,None,,,,,,,,kruti,001,2023-10-18_12h19.52.487,oct 9 class,2023.2.2,119.64250724903314,2023-10-18 12h20.00.654260 +0530,
-150,z,random,0,0,0,0,28,1,113,0,,,,,138.26946658303495,,,,,,,138.26276562502608,0.6061622500419617,139.43656950001605,z,1,0.5671404580352828,None,,,,,,,,kruti,001,2023-10-18_12h19.52.487,oct 9 class,2023.2.2,119.64250724903314,2023-10-18 12h20.00.654260 +0530,
50,c,random,0,0,0,0,28,2,114,2,,,,,139.44488316698698,,,,,,,139.43723979202332,0.6079190409509465,140.36977437499445,c,1,0.3241084579494782,None,,,,,,,,kruti,001,2023-10-18_12h19.52.487,oct 9 class,2023.2.2,119.64250724903314,2023-10-18 12h20.00.654260 +0530,
50,c,random,0,0,0,0,28,3,115,2,,,,,140.37854579201667,,,,,,,140.37055837502703,0.6004775420296937,141.44539370801067,c,1,0.4691927080275491,None,,,,,,,,kruti,001,2023-10-18_12h19.52.487,oct 9 class,2023.2.2,119.64250724903314,2023-10-18 12h20.00.654260 +0530,
150,v,random,0,0,0,0,29,0,116,3,,,,,141.45313170802547,,,,,,,141.4460634579882,0.5990369169740006,142.47879962500883,v,1,0.4263357919990085,None,,,,,,,,kruti,001,2023-10-18_12h19.52.487,oct 9 class,2023.2.2,119.64250724903314,2023-10-18 12h20.00.654260 +0530,
50,c,random,0,0,0,0,29,1,117,2,,,,,142.4864043330308,,,,,,,142.47948641702533,0.6060414160019718,143.495354417013,c,1,0.403637167008128,None,,,,,,,,kruti,001,2023-10-18_12h19.52.487,oct 9 class,2023.2.2,119.64250724903314,2023-10-18 12h20.00.654260 +0530,
50,c,random,0,0,0,0,29,2,118,2,,,,,143.50309200002812,,,,,,,143.4960149169783,0.5991987090092152,144.49554891698062,c,1,0.3950245419982821,None,,,,,,,,kruti,001,2023-10-18_12h19.52.487,oct 9 class,2023.2.2,119.64250724903314,2023-10-18 12h20.00.654260 +0530,
-150,z,random,0,0,0,0,29,3,119,0,,,,,144.50343520799652,,,,,,,144.49625912500778,0.6060815409873612,145.67881266702898,z,1,0.5698974170372821,None,,,,,,,,kruti,001,2023-10-18_12h19.52.487,oct 9 class,2023.2.2,119.64250724903314,2023-10-18 12h20.00.654260 +0530,
-50,x,random,0,0,0,0,30,0,120,1,,,,,145.68636995798443,,,,,,,145.6795039169956,0.6060180840431713,146.8355998750194,x,1,0.5467158340034075,None,,,,,,,,kruti,001,2023-10-18_12h19.52.487,oct 9 class,2023.2.2,119.64250724903314,2023-10-18 12h20.00.654260 +0530,
-50,x,random,0,0,0,0,30,1,121,1,,,,,146.84417087503243,,,,,,,146.83628183300607,0.5994301249738783,147.82889950001845,x,1,0.3894372920040041,None,,,,,,,,kruti,001,2023-10-18_12h19.52.487,oct 9 class,2023.2.2,119.64250724903314,2023-10-18 12h20.00.654260 +0530,
-50,x,random,0,0,0,0,30,2,122,1,,,,,147.83645304199308,,,,,,,147.82958808302647,0.5990531669813208,148.7691288330243,x,1,0.33702408301178366,None,,,,,,,,kruti,001,2023-10-18_12h19.52.487,oct 9 class,2023.2.2,119.64250724903314,2023-10-18 12h20.00.654260 +0530,
150,v,random,0,0,0,0,30,3,123,3,,,,,148.77771250001388,,,,,,,148.76979404198937,0.5991048329742625,149.82813795801485,v,1,0.4526407920056954,None,,,,,,,,kruti,001,2023-10-18_12h19.52.487,oct 9 class,2023.2.2,119.64250724903314,2023-10-18 12h20.00.654260 +0530,
150,v,random,0,0,0,0,31,0,124,3,,,,,149.83560362498974,,,,,,,149.82882179203443,0.5996257920050994,150.80403929197928,v,1,0.3667042920133099,None,,,,,,,,kruti,001,2023-10-18_12h19.52.487,oct 9 class,2023.2.2,119.64250724903314,2023-10-18 12h20.00.654260 +0530,
-150,z,random,0,0,0,0,31,1,125,0,,,,,150.81081262498628,,,,,,,150.80473904201062,0.6070119590149261,151.89547137502814,z,1,0.47867166699143127,None,,,,,,,,kruti,001,2023-10-18_12h19.52.487,oct 9 class,2023.2.2,119.64250724903314,2023-10-18 12h20.00.654260 +0530,
50,c,random,0,0,0,0,31,2,126,2,,,,,151.90292495803442,,,,,,,151.8961791670299,0.6059434169437736,152.86202929198043,v,0,0.3564208330353722,None,,,,,,,,kruti,001,2023-10-18_12h19.52.487,oct 9 class,2023.2.2,119.64250724903314,2023-10-18 12h20.00.654260 +0530,
50,c,random,0,0,0,0,31,3,127,2,,,,,152.86945083300816,,,,,,,152.8626976670348,0.5990368750062771,154.52862466702936,c,1,1.0633763750083745,None,,,,,,,,kruti,001,2023-10-18_12h19.52.487,oct 9 class,2023.2.2,119.64250724903314,2023-10-18 12h20.00.654260 +0530,
150,v,random,0,0,0,0,32,0,128,3,,,,,154.53624687500997,,,,,,,154.52932483301265,0.5990266670123674,155.67829875001917,v,1,0.5478185419924557,None,,,,,,,,kruti,001,2023-10-18_12h19.52.487,oct 9 class,2023.2.2,119.64250724903314,2023-10-18 12h20.00.654260 +0530,
-150,z,random,0,0,0,0,32,1,129,0,,,,,155.68588416703278,,,,,,,155.67897516698577,0.5992997499997728,156.82013629202265,z,1,0.5411855000420474,None,,,,,,,,kruti,001,2023-10-18_12h19.52.487,oct 9 class,2023.2.2,119.64250724903314,2023-10-18 12h20.00.654260 +0530,
50,c,random,0,0,0,0,32,2,130,2,,,,,156.8288645829889,,,,,,,156.82103187503526,0.6076175419730134,157.85281920799753,c,1,0.42157837498234585,None,,,,,,,,kruti,001,2023-10-18_12h19.52.487,oct 9 class,2023.2.2,119.64250724903314,2023-10-18 12h20.00.654260 +0530,
-50,x,random,0,0,0,0,32,3,131,1,,,,,157.86133554199478,,,,,,,157.85359966702526,0.6079257499659434,158.98759179201443,x,1,0.5225510000018403,None,,,,,,,,kruti,001,2023-10-18_12h19.52.487,oct 9 class,2023.2.2,119.64250724903314,2023-10-18 12h20.00.654260 +0530,
150,v,random,0,0,0,0,33,0,132,3,,,,,159.01126450003358,,,,,,,158.98848599998746,0.6065048330347054,159.96925829199608,v,1,0.37392687500687316,None,,,,,,,,kruti,001,2023-10-18_12h19.52.487,oct 9 class,2023.2.2,119.64250724903314,2023-10-18 12h20.00.654260 +0530,
150,v,random,0,0,0,0,33,1,133,3,,,,,159.9781237919815,,,,,,,159.96991404198343,0.6084527079947293,161.08559954201337,v,1,0.5029159999685362,None,,,,,,,,kruti,001,2023-10-18_12h19.52.487,oct 9 class,2023.2.2,119.64250724903314,2023-10-18 12h20.00.654260 +0530,
50,c,random,0,0,0,0,33,2,134,2,,,,,161.09462416701717,,,,,,,161.08626420801738,0.5992931669461541,162.16149620799115,c,1,0.4682601250242442,None,,,,,,,,kruti,001,2023-10-18_12h19.52.487,oct 9 class,2023.2.2,119.64250724903314,2023-10-18 12h20.00.654260 +0530,
-150,z,random,0,0,0,0,33,3,135,0,,,,,162.1688807500177,,,,,,,162.16216362500563,0.5994556249934249,163.2619917920092,z,1,0.4962967080064118,None,,,,,,,,kruti,001,2023-10-18_12h19.52.487,oct 9 class,2023.2.2,119.64250724903314,2023-10-18 12h20.00.654260 +0530,
-150,z,random,0,0,0,0,34,0,136,0,,,,,163.26946395798586,,,,,,,163.2626575420145,0.5990627909777686,164.38606179202907,z,1,0.5225414170417935,None,,,,,,,,kruti,001,2023-10-18_12h19.52.487,oct 9 class,2023.2.2,119.64250724903314,2023-10-18 12h20.00.654260 +0530,
50,c,random,0,0,0,0,34,1,137,2,,,,,164.3946152080316,,,,,,,164.3867303750012,0.6081099999719299,165.47821141697932,c,1,0.47519587504211813,None,,,,,,,,kruti,001,2023-10-18_12h19.52.487,oct 9 class,2023.2.2,119.64250724903314,2023-10-18 12h20.00.654260 +0530,
-50,x,random,0,0,0,0,34,2,138,1,,,,,165.48572533298284,,,,,,,165.47888850001618,0.5997398330364376,166.60166687500896,x,1,0.5191478329943493,None,,,,,,,,kruti,001,2023-10-18_12h19.52.487,oct 9 class,2023.2.2,119.64250724903314,2023-10-18 12h20.00.654260 +0530,
150,v,random,0,0,0,0,34,3,139,3,,,,,166.61123954202048,,,,,,,166.6023308330332,0.5997970000025816,167.64521070802584,v,1,0.44057279196567833,None,,,,,,,,kruti,001,2023-10-18_12h19.52.487,oct 9 class,2023.2.2,119.64250724903314,2023-10-18 12h20.00.654260 +0530,
50,c,random,0,0,0,0,35,0,140,2,,,,,167.65257758297957,,,,,,,167.64585491700564,0.5991887500276789,168.7022289999877,c,1,0.45177674997830763,None,,,,,,,,kruti,001,2023-10-18_12h19.52.487,oct 9 class,2023.2.2,119.64250724903314,2023-10-18 12h20.00.654260 +0530,
50,c,random,0,0,0,0,35,1,141,2,,,,,168.71125054202275,,,,,,,168.70289675000822,0.600948708015494,169.76902616699226,c,1,0.463370917015709,None,,,,,,,,kruti,001,2023-10-18_12h19.52.487,oct 9 class,2023.2.2,119.64250724903314,2023-10-18 12h20.00.654260 +0530,
-50,x,random,0,0,0,0,35,2,142,1,,,,,169.7779219999793,,,,,,,169.7697217920213,0.601054499973543,170.89485791698098,x,1,0.5152301670168526,None,,,,,,,,kruti,001,2023-10-18_12h19.52.487,oct 9 class,2023.2.2,119.64250724903314,2023-10-18 12h20.00.654260 +0530,
-50,x,random,0,0,0,0,35,3,143,1,,,,,170.9024554170319,,,,,,,170.89554233301897,0.5996348749613389,172.77870158298174,x,1,1.279613624967169,None,,,,,,,,kruti,001,2023-10-18_12h19.52.487,oct 9 class,2023.2.2,119.64250724903314,2023-10-18 12h20.00.654260 +0530,
150,v,random,0,0,0,0,36,0,144,3,,,,,172.7861986249918,,,,,,,172.77937654202105,0.6060901250457391,174.15243750001537,v,1,0.7634770419681445,None,,,,,,,,kruti,001,2023-10-18_12h19.52.487,oct 9 class,2023.2.2,119.64250724903314,2023-10-18 12h20.00.654260 +0530,
-150,z,random,0,0,0,0,36,1,145,0,,,,,174.1606759169954,,,,,,,174.1531156669953,0.6084745420375839,175.27034641703358,z,1,0.5003922500181943,None,,,,,,,,kruti,001,2023-10-18_12h19.52.487,oct 9 class,2023.2.2,119.64250724903314,2023-10-18 12h20.00.654260 +0530,
150,v,random,0,0,0,0,36,2,146,3,,,,,175.27784408302978,,,,,,,175.2710335419979,0.6071856250055134,176.4515288330149,v,1,0.5673610410303809,None,,,,,,,,kruti,001,2023-10-18_12h19.52.487,oct 9 class,2023.2.2,119.64250724903314,2023-10-18 12h20.00.654260 +0530,
-150,z,random,0,0,0,0,36,3,147,0,,,,,176.46077175001847,,,,,,,176.45218999998178,0.5995784580009058,177.6619466249831,z,1,0.6061742079909891,None,,,,,,,,kruti,001,2023-10-18_12h19.52.487,oct 9 class,2023.2.2,119.64250724903314,2023-10-18 12h20.00.654260 +0530,
150,v,random,0,0,0,0,37,0,148,3,,,,,177.66946804203326,,,,,,,177.6626339170034,0.6061470829881728,178.66198520798935,v,1,0.38530933298170567,None,,,,,,,,kruti,001,2023-10-18_12h19.52.487,oct 9 class,2023.2.2,119.64250724903314,2023-10-18 12h20.00.654260 +0530,
150,v,random,0,0,0,0,37,1,149,3,,,,,178.66967437497806,,,,,,,178.6627052500262,0.6061424170038663,179.7355950420024,v,1,0.46208283299347386,None,,,,,,,,kruti,001,2023-10-18_12h19.52.487,oct 9 class,2023.2.2,119.64250724903314,2023-10-18 12h20.00.654260 +0530,
-50,x,random,0,0,0,0,37,2,150,1,,,,,179.744482124981,,,,,,,179.7362621250213,0.5992367910221219,181.04489995801123,x,1,0.7035351670347154,None,,,,,,,,kruti,001,2023-10-18_12h19.52.487,oct 9 class,2023.2.2,119.64250724903314,2023-10-18 12h20.00.654260 +0530,
-150,z,random,0,0,0,0,37,3,151,0,,,,,181.05245862499578,,,,,,,181.04556937498273,0.5993396670091897,182.2786939170328,z,1,0.6277982499450445,None,,,,,,,,kruti,001,2023-10-18_12h19.52.487,oct 9 class,2023.2.2,119.64250724903314,2023-10-18 12h20.00.654260 +0530,
-50,x,random,0,0,0,0,38,0,152,1,,,,,182.2861489999923,,,,,,,182.2793614580296,0.6062425839481875,183.2856922079809,x,1,0.39387500000884756,None,,,,,,,,kruti,001,2023-10-18_12h19.52.487,oct 9 class,2023.2.2,119.64250724903314,2023-10-18 12h20.00.654260 +0530,
150,v,random,0,0,0,0,38,1,153,3,,,,,183.2940529169864,,,,,,,183.28634608298307,0.600481542001944,184.2855087920325,v,1,0.3931983340298757,None,,,,,,,,kruti,001,2023-10-18_12h19.52.487,oct 9 class,2023.2.2,119.64250724903314,2023-10-18 12h20.00.654260 +0530,
50,c,random,0,0,0,0,38,2,154,2,,,,,184.29449400003068,,,,,,,184.28618720802478,0.5990565830143169,185.45241245802026,c,1,0.5660725000197999,None,,,,,,,,kruti,001,2023-10-18_12h19.52.487,oct 9 class,2023.2.2,119.64250724903314,2023-10-18 12h20.00.654260 +0530,
150,v,random,0,0,0,0,38,3,155,3,,,,,185.4605940830079,,,,,,,185.45309866702883,0.6003551670000888,186.7119174579857,v,1,0.6546270839753561,None,,,,,,,,kruti,001,2023-10-18_12h19.52.487,oct 9 class,2023.2.2,119.64250724903314,2023-10-18 12h20.00.654260 +0530,
-150,z,random,0,0,0,0,39,0,156,0,,,,,186.7194126250106,,,,,,,186.71257645799778,0.5990157499909401,187.84508075000485,z,1,0.5248397500254214,None,,,,,,,,kruti,001,2023-10-18_12h19.52.487,oct 9 class,2023.2.2,119.64250724903314,2023-10-18 12h20.00.654260 +0530,
150,v,random,0,0,0,0,39,1,157,3,,,,,187.85242237499915,,,,,,,187.84575625002617,0.5992436250089668,188.9450580829871,v,1,0.4921179169905372,None,,,,,,,,kruti,001,2023-10-18_12h19.52.487,oct 9 class,2023.2.2,119.64250724903314,2023-10-18 12h20.00.654260 +0530,
150,v,random,0,0,0,0,39,2,158,3,,,,,188.95249141700333,,,,,,,188.945739125018,0.5990312080248259,190.34544470801484,v,1,0.7948472499847412,None,,,,,,,,kruti,001,2023-10-18_12h19.52.487,oct 9 class,2023.2.2,119.64250724903314,2023-10-18 12h20.00.654260 +0530,
150,v,random,0,0,0,0,39,3,159,3,,,,,190.35393408301752,,,,,,,190.34617370797787,0.6053921250277199,191.3349853749969,v,1,0.3808252079761587,None,,,,,,,,kruti,001,2023-10-18_12h19.52.487,oct 9 class,2023.2.2,119.64250724903314,2023-10-18 12h20.00.654260 +0530,
-50,x,random,0,0,0,0,40,0,160,1,,,,,191.34446741698775,,,,,,,191.3356683329912,0.5996746249729767,192.51189150003484,x,1,0.5720821249997243,None,,,,,,,,kruti,001,2023-10-18_12h19.52.487,oct 9 class,2023.2.2,119.64250724903314,2023-10-18 12h20.00.654260 +0530,
50,c,random,0,0,0,0,40,1,161,2,,,,,192.51930650003487,,,,,,,192.51258308300748,0.6061290000216104,193.83565875003114,c,1,0.7135097089922056,None,,,,,,,,kruti,001,2023-10-18_12h19.52.487,oct 9 class,2023.2.2,119.64250724903314,2023-10-18 12h20.00.654260 +0530,
150,v,random,0,0,0,0,40,2,162,3,,,,,193.84445029200288,,,,,,,193.83635120798135,0.6083619999699295,195.00200937502086,v,1,0.550522124976851,None,,,,,,,,kruti,001,2023-10-18_12h19.52.487,oct 9 class,2023.2.2,119.64250724903314,2023-10-18 12h20.00.654260 +0530,
150,v,random,0,0,0,0,40,3,163,3,,,,,195.01105037500383,,,,,,,195.00268458301434,0.5990022079786286,196.16874250001274,v,1,0.5620585000142455,None,,,,,,,,kruti,001,2023-10-18_12h19.52.487,oct 9 class,2023.2.2,119.64250724903314,2023-10-18 12h20.00.654260 +0530,
-50,x,random,0,0,0,0,41,0,164,1,,,,,196.17771925003035,,,,,,,196.1694120420143,0.599009333003778,197.38748995802598,x,1,0.6152636669576168,None,,,,,,,,kruti,001,2023-10-18_12h19.52.487,oct 9 class,2023.2.2,119.64250724903314,2023-10-18 12h20.00.654260 +0530,
-150,z,random,0,0,0,0,41,1,165,0,,,,,197.4105712500168,,,,,,,197.38843858300243,0.6062516249949113,198.62821308302227,z,1,0.6242854169686325,None,,,,,,,,kruti,001,2023-10-18_12h19.52.487,oct 9 class,2023.2.2,119.64250724903314,2023-10-18 12h20.00.654260 +0530,
-50,x,random,0,0,0,0,41,2,166,1,,,,,198.63447749998886,,,,,,,198.6289442080306,0.599088084010873,199.57783495803596,x,1,0.343180957948789,None,,,,,,,,kruti,001,2023-10-18_12h19.52.487,oct 9 class,2023.2.2,119.64250724903314,2023-10-18 12h20.00.654260 +0530,
-150,z,random,0,0,0,0,41,3,167,0,,,,,199.58533299999544,,,,,,,199.57853358302964,0.5995831249747425,200.71137941698544,z,1,0.5291173750301823,None,,,,,,,,kruti,001,2023-10-18_12h19.52.487,oct 9 class,2023.2.2,119.64250724903314,2023-10-18 12h20.00.654260 +0530,
50,c,random,0,0,0,0,42,0,168,2,,,,,200.71907304198248,,,,,,,200.71204270800808,0.5994093750487082,202.16161216702312,c,1,0.8455452920170501,None,,,,,,,,kruti,001,2023-10-18_12h19.52.487,oct 9 class,2023.2.2,119.64250724903314,2023-10-18 12h20.00.654260 +0530,
50,c,random,0,0,0,0,42,1,169,2,,,,,202.16915416700067,,,,,,,202.1623082080041,0.5991964589920826,203.16171337501146,c,1,0.394559207954444,None,,,,,,,,kruti,001,2023-10-18_12h19.52.487,oct 9 class,2023.2.2,119.64250724903314,2023-10-18 12h20.00.654260 +0530,
50,c,random,0,0,0,0,42,2,170,2,,,,,203.16930733300978,,,,,,,203.16239345801296,0.6059306249953806,204.09432891698088,c,1,0.3178780000307597,None,,,,,,,,kruti,001,2023-10-18_12h19.52.487,oct 9 class,2023.2.2,119.64250724903314,2023-10-18 12h20.00.654260 +0530,
-50,x,random,0,0,0,0,42,3,171,1,,,,,204.10173670802033,,,,,,,204.0950124579831,0.5995812499895692,205.1614220829797,x,1,0.45960712496889755,None,,,,,,,,kruti,001,2023-10-18_12h19.52.487,oct 9 class,2023.2.2,119.64250724903314,2023-10-18 12h20.00.654260 +0530,
-150,z,random,0,0,0,0,43,0,172,0,,,,,205.16900779202115,,,,,,,205.16209862503456,0.5992307499982417,206.29484016698552,z,1,0.5286224589799531,None,,,,,,,,kruti,001,2023-10-18_12h19.52.487,oct 9 class,2023.2.2,119.64250724903314,2023-10-18 12h20.00.654260 +0530,
150,v,random,0,0,0,0,43,1,173,3,,,,,206.30224945797818,,,,,,,206.29549387498992,0.5990923750214279,207.51143937499728,v,1,0.6108011669712141,None,,,,,,,,kruti,001,2023-10-18_12h19.52.487,oct 9 class,2023.2.2,119.64250724903314,2023-10-18 12h20.00.654260 +0530,
-50,x,random,0,0,0,0,43,2,174,1,,,,,207.5188247920014,,,,,,,207.5121134580113,0.5991838750196621,208.51870637503453,x,1,0.40496137499576434,None,,,,,,,,kruti,001,2023-10-18_12h19.52.487,oct 9 class,2023.2.2,119.64250724903314,2023-10-18 12h20.00.654260 +0530,
-150,z,random,0,0,0,0,43,3,175,0,,,,,208.52702083298936,,,,,,,208.5193849580246,0.6084789999877103,209.70137841702672,z,1,0.5672172079794109,None,,,,,,,,kruti,001,2023-10-18_12h19.52.487,oct 9 class,2023.2.2,119.64250724903314,2023-10-18 12h20.00.654260 +0530,
-150,z,random,0,0,0,0,44,0,176,0,,,,,209.7109679169953,,,,,,,209.70206491701538,0.5996892499970272,210.844448207994,z,1,0.536334500007797,None,,,,,,,,kruti,001,2023-10-18_12h19.52.487,oct 9 class,2023.2.2,119.64250724903314,2023-10-18 12h20.00.654260 +0530,
-150,z,random,0,0,0,0,44,1,177,0,,,,,210.85202841699356,,,,,,,210.8451314580161,0.5995833330089226,211.8781511670095,z,1,0.42635708302259445,None,,,,,,,,kruti,001,2023-10-18_12h19.52.487,oct 9 class,2023.2.2,119.64250724903314,2023-10-18 12h20.00.654260 +0530,
-150,z,random,0,0,0,0,44,2,178,0,,,,,211.88555808301317,,,,,,,211.87881850003032,0.6059528330224566,212.95175870798994,z,1,0.4623561669723131,None,,,,,,,,kruti,001,2023-10-18_12h19.52.487,oct 9 class,2023.2.2,119.64250724903314,2023-10-18 12h20.00.654260 +0530,
50,c,random,0,0,0,0,44,3,179,2,,,,,212.96018958301283,,,,,,,212.95241716702003,0.5991876669577323,214.46870129200397,c,1,0.914184249995742,None,,,,,,,,kruti,001,2023-10-18_12h19.52.487,oct 9 class,2023.2.2,119.64250724903314,2023-10-18 12h20.00.654260 +0530,
-150,z,random,0,0,0,0,45,0,180,0,,,,,214.4769225420314,,,,,,,214.4693747080164,0.5991421660291962,215.56103962502675,z,1,0.4887497089803219,None,,,,,,,,kruti,001,2023-10-18_12h19.52.487,oct 9 class,2023.2.2,119.64250724903314,2023-10-18 12h20.00.654260 +0530,
-150,z,random,0,0,0,0,45,1,181,0,,,,,215.56882945803227,,,,,,,215.5617154579959,0.5994030829751864,216.73475258302642,z,1,0.5680685000261292,None,,,,,,,,kruti,001,2023-10-18_12h19.52.487,oct 9 class,2023.2.2,119.64250724903314,2023-10-18 12h20.00.654260 +0530,
150,v,random,0,0,0,0,45,2,182,3,,,,,216.7441202920163,,,,,,,216.7354100419907,0.5993814580142498,217.95364379201783,v,1,0.6140317500103265,None,,,,,,,,kruti,001,2023-10-18_12h19.52.487,oct 9 class,2023.2.2,119.64250724903314,2023-10-18 12h20.00.654260 +0530,
150,v,random,0,0,0,0,45,3,183,3,,,,,217.9616647500079,,,,,,,217.95433758298168,0.6067669580224901,219.1442616250133,v,1,0.579246792010963,None,,,,,,,,kruti,001,2023-10-18_12h19.52.487,oct 9 class,2023.2.2,119.64250724903314,2023-10-18 12h20.00.654260 +0530,
50,c,random,0,0,0,0,46,0,184,2,,,,,219.1516573749832,,,,,,,219.14494750002632,0.59949220798444,220.72836200002348,c,1,0.9834127080393955,None,,,,,,,,kruti,001,2023-10-18_12h19.52.487,oct 9 class,2023.2.2,119.64250724903314,2023-10-18 12h20.00.654260 +0530,
-50,x,random,0,0,0,0,46,1,185,1,,,,,220.7358713329886,,,,,,,220.72903616703115,0.6076045419904403,222.0516528750304,x,1,0.7085274160490371,None,,,,,,,,kruti,001,2023-10-18_12h19.52.487,oct 9 class,2023.2.2,119.64250724903314,2023-10-18 12h20.00.654260 +0530,
50,c,random,0,0,0,0,46,2,186,2,,,,,222.0609142500325,,,,,,,222.05232270801207,0.5995754579780623,223.57803787500598,c,1,0.9203599999891594,None,,,,,,,,kruti,001,2023-10-18_12h19.52.487,oct 9 class,2023.2.2,119.64250724903314,2023-10-18 12h20.00.654260 +0530,
-150,z,random,0,0,0,0,46,3,187,0,,,,,223.5856284580077,,,,,,,223.57870262500364,0.599091749987565,224.95156549999956,z,1,0.7689569999929518,None,,,,,,,,kruti,001,2023-10-18_12h19.52.487,oct 9 class,2023.2.2,119.64250724903314,2023-10-18 12h20.00.654260 +0530,
-50,x,random,0,0,0,0,47,0,188,1,,,,,224.96079612500034,,,,,,,224.95221354201203,0.599226166959852,226.21139637503074,x,1,0.652247832971625,None,,,,,,,,kruti,001,2023-10-18_12h19.52.487,oct 9 class,2023.2.2,119.64250724903314,2023-10-18 12h20.00.654260 +0530,
50,c,random,0,0,0,0,47,1,189,2,,,,,226.2188982500229,,,,,,,226.2120705000125,0.6062004999839701,227.4034918330144,c,1,0.5764563340344466,None,,,,,,,,kruti,001,2023-10-18_12h19.52.487,oct 9 class,2023.2.2,119.64250724903314,2023-10-18 12h20.00.654260 +0530,
-50,x,random,0,0,0,0,47,2,190,1,,,,,227.41073187498841,,,,,,,227.40420437499415,0.6067818330484442,228.54447116702795,x,1,0.5256787079852074,None,,,,,,,,kruti,001,2023-10-18_12h19.52.487,oct 9 class,2023.2.2,119.64250724903314,2023-10-18 12h20.00.654260 +0530,
-50,x,random,0,0,0,0,47,3,191,1,,,,,228.55197554198094,,,,,,,228.5451501670177,0.5993550000130199,229.7116589579964,x,1,0.5666205830057152,None,,,,,,,,kruti,001,2023-10-18_12h19.52.487,oct 9 class,2023.2.2,119.64250724903314,2023-10-18 12h20.00.654260 +0530,
-150,z,random,0,0,0,0,48,0,192,0,,,,,229.71930079202866,,,,,,,229.71233454201138,0.6059502919670194,230.79402141697938,z,1,0.46817587496479973,None,,,,,,,,kruti,001,2023-10-18_12h19.52.487,oct 9 class,2023.2.2,119.64250724903314,2023-10-18 12h20.00.654260 +0530,
-150,z,random,0,0,0,0,48,1,193,0,,,,,230.8013123330311,,,,,,,230.79469204199268,0.5998610829701647,231.93438391701784,z,1,0.5344790419912897,None,,,,,,,,kruti,001,2023-10-18_12h19.52.487,oct 9 class,2023.2.2,119.64250724903314,2023-10-18 12h20.00.654260 +0530,
50,c,random,0,0,0,0,48,2,194,2,,,,,231.94353899999987,,,,,,,231.9350784170092,0.6000254169921391,233.65154562500538,c,1,1.1123494579805993,None,,,,,,,,kruti,001,2023-10-18_12h19.52.487,oct 9 class,2023.2.2,119.64250724903314,2023-10-18 12h20.00.654260 +0530,
-50,x,random,0,0,0,0,48,3,195,1,,,,,233.66013162501622,,,,,,,233.65221766702598,0.5994444999960251,234.71083558298415,x,1,0.45724041701760143,None,,,,,,,,kruti,001,2023-10-18_12h19.52.487,oct 9 class,2023.2.2,119.64250724903314,2023-10-18 12h20.00.654260 +0530,
50,c,random,0,0,0,0,49,0,196,2,,,,,234.71680887503317,,,,,,,234.7114801669959,0.5994670839863829,235.71867037500488,c,1,0.40351820801151916,None,,,,,,,,kruti,001,2023-10-18_12h19.52.487,oct 9 class,2023.2.2,119.64250724903314,2023-10-18 12h20.00.654260 +0530,
50,c,random,0,0,0,0,49,1,197,2,,,,,235.72728916699998,,,,,,,235.71934241702547,0.6081448750337586,236.7186094999779,c,1,0.38616737502161413,None,,,,,,,,kruti,001,2023-10-18_12h19.52.487,oct 9 class,2023.2.2,119.64250724903314,2023-10-18 12h20.00.654260 +0530,
-50,x,random,0,0,0,0,49,2,198,1,,,,,236.72729629202513,,,,,,,236.71928454202134,0.6077979159890674,237.76119983301032,x,1,0.4253517919569276,None,,,,,,,,kruti,001,2023-10-18_12h19.52.487,oct 9 class,2023.2.2,119.64250724903314,2023-10-18 12h20.00.654260 +0530,
50,c,random,0,0,0,0,49,3,199,2,,,,,237.7687070419779,,,,,,,237.76187987503363,0.5990275829681195,238.76839612500044,c,1,0.4018415000173263,None,,,,,,,,kruti,001,2023-10-18_12h19.52.487,oct 9 class,2023.2.2,119.64250724903314,2023-10-18 12h20.00.654260 +0530,
-150,z,sequential,0,0,0,0,,,,,0,0,0,0,238.785672375001,,,,,,,,,,,,,,238.77837754198117,0.5993224579724483,240.01859325001715,z,1,0.6430808330187574,None,kruti,001,2023-10-18_12h19.52.487,oct 9 class,2023.2.2,119.64250724903314,2023-10-18 12h20.00.654260 +0530,
-50,x,sequential,0,0,0,0,,,,,0,1,1,1,240.026694457978,,,,,,,,,,,,,,240.0195916669909,0.6072397920070216,241.02801399998134,x,1,0.39225316600641236,None,kruti,001,2023-10-18_12h19.52.487,oct 9 class,2023.2.2,119.64250724903314,2023-10-18 12h20.00.654260 +0530,
50,c,sequential,0,0,0,0,,,,,0,2,2,2,241.03561320801964,,,,,,,,,,,,,,241.02868420799496,0.6061504159588367,242.8348349169828,c,1,1.1966455419897102,None,kruti,001,2023-10-18_12h19.52.487,oct 9 class,2023.2.2,119.64250724903314,2023-10-18 12h20.00.654260 +0530,
150,v,sequential,0,0,0,0,,,,,0,3,3,3,242.84381099999882,,,,,,,,,,,,,,242.83549016702455,0.5991639999556355,244.16808637499344,v,1,0.72788695798954,None,kruti,001,2023-10-18_12h19.52.487,oct 9 class,2023.2.2,119.64250724903314,2023-10-18 12h20.00.654260 +0530,
-150,z,sequential,0,0,0,0,,,,,1,0,4,0,244.17706775001716,,,,,,,,,,,,,,244.16877341701183,0.6086169999907725,245.25163499999326,z,1,0.4711627080105245,None,kruti,001,2023-10-18_12h19.52.487,oct 9 class,2023.2.2,119.64250724903314,2023-10-18 12h20.00.654260 +0530,
-50,x,sequential,0,0,0,0,,,,,1,1,5,1,245.26047387497965,,,,,,,,,,,,,,245.25230804202147,0.5992587080108933,246.45164970803307,x,1,0.5939356670132838,None,kruti,001,2023-10-18_12h19.52.487,oct 9 class,2023.2.2,119.64250724903314,2023-10-18 12h20.00.654260 +0530,
50,c,sequential,0,0,0,0,,,,,1,2,6,2,246.46092566702282,,,,,,,,,,,,,,246.45231187500758,0.6085035420255736,247.7014158749953,c,1,0.6368150410125963,None,kruti,001,2023-10-18_12h19.52.487,oct 9 class,2023.2.2,119.64250724903314,2023-10-18 12h20.00.654260 +0530,
150,v,sequential,0,0,0,0,,,,,1,3,7,3,247.71038879198022,,,,,,,,,,,,,,247.7020702920272,0.5990851660026237,248.98501166701317,v,1,0.6800234579714015,None,kruti,001,2023-10-18_12h19.52.487,oct 9 class,2023.2.2,119.64250724903314,2023-10-18 12h20.00.654260 +0530,
-150,z,sequential,0,0,0,0,,,,,2,0,8,0,248.99382283299929,,,,,,,,,,,,,,248.9856945000356,0.6083125419681892,250.21142641699407,z,1,0.6169314170256257,None,kruti,001,2023-10-18_12h19.52.487,oct 9 class,2023.2.2,119.64250724903314,2023-10-18 12h20.00.654260 +0530,
-50,x,sequential,0,0,0,0,,,,,2,1,9,1,250.2188024999923,,,,,,,,,,,,,,250.21209970803466,0.606473250023555,251.77783379203174,x,1,0.9512765419785865,None,kruti,001,2023-10-18_12h19.52.487,oct 9 class,2023.2.2,119.64250724903314,2023-10-18 12h20.00.654260 +0530,
50,c,sequential,0,0,0,0,,,,,2,2,10,2,251.78529441700084,,,,,,,,,,,,,,251.7785101250047,0.5990055830334313,253.5604380830191,c,1,1.1794577499968,None,kruti,001,2023-10-18_12h19.52.487,oct 9 class,2023.2.2,119.64250724903314,2023-10-18 12h20.00.654260 +0530,
150,v,sequential,0,0,0,0,,,,,2,3,11,3,253.5678248750046,,,,,,,,,,,,,,253.5611115830252,0.5991204589954577,254.94438362499932,v,1,0.7752106660045683,None,kruti,001,2023-10-18_12h19.52.487,oct 9 class,2023.2.2,119.64250724903314,2023-10-18 12h20.00.654260 +0530,
-150,z,sequential,0,0,0,0,,,,,3,0,12,0,254.95184516703011,,,,,,,,,,,,,,254.94505195802776,0.6061143749975599,256.15125749999424,z,1,0.5969190420000814,None,kruti,001,2023-10-18_12h19.52.487,oct 9 class,2023.2.2,119.64250724903314,2023-10-18 12h20.00.654260 +0530,
-50,x,sequential,0,0,0,0,,,,,3,1,13,1,256.16032566700596,,,,,,,,,,,,,,256.1519113749964,0.6004289999837056,257.24415745801525,x,1,0.4881041669868864,None,kruti,001,2023-10-18_12h19.52.487,oct 9 class,2023.2.2,119.64250724903314,2023-10-18 12h20.00.654260 +0530,
50,c,sequential,0,0,0,0,,,,,3,2,14,2,257.25198754202574,,,,,,,,,,,,,,257.24484787503025,0.6072078750003129,258.32119420799427,c,1,0.46815445803804323,None,kruti,001,2023-10-18_12h19.52.487,oct 9 class,2023.2.2,119.64250724903314,2023-10-18 12h20.00.654260 +0530,
150,v,sequential,0,0,0,0,,,,,3,3,15,3,258.3308711249847,,,,,,,,,,,,,,258.32220633298857,0.6052609169855714,259.55174533301033,v,1,0.6194106249604374,None,kruti,001,2023-10-18_12h19.52.487,oct 9 class,2023.2.2,119.64250724903314,2023-10-18 12h20.00.654260 +0530,
-150,z,sequential,0,0,0,0,,,,,4,0,16,0,259.56053858302766,,,,,,,,,,,,,,259.5524672920001,0.5990918339812197,260.7188070000266,z,1,0.5667148329666816,None,kruti,001,2023-10-18_12h19.52.487,oct 9 class,2023.2.2,119.64250724903314,2023-10-18 12h20.00.654260 +0530,
-50,x,sequential,0,0,0,0,,,,,4,1,17,1,260.7275339579792,,,,,,,,,,,,,,260.71952158299973,0.5992102500167675,261.8521069170092,x,1,0.5279127909452654,None,kruti,001,2023-10-18_12h19.52.487,oct 9 class,2023.2.2,119.64250724903314,2023-10-18 12h20.00.654260 +0530,
50,c,sequential,0,0,0,0,,,,,4,2,18,2,261.8611911670305,,,,,,,,,,,,,,261.85288358299294,0.5990452920086682,263.8022096250206,c,1,1.3451572500052862,None,kruti,001,2023-10-18_12h19.52.487,oct 9 class,2023.2.2,119.64250724903314,2023-10-18 12h20.00.654260 +0530,
150,v,sequential,0,0,0,0,,,,,4,3,19,3,263.8110539999907,,,,,,,,,,,,,,263.80292412498966,0.6075808329624124,265.1939527079812,v,1,0.7799074160284363,None,kruti,001,2023-10-18_12h19.52.487,oct 9 class,2023.2.2,119.64250724903314,2023-10-18 12h20.00.654260 +0530,
-150,z,sequential,0,0,0,0,,,,,5,0,20,0,265.20214154198766,,,,,,,,,,,,,,265.1947013330064,0.59925479197409,266.57739958300954,z,1,0.7808907079743221,None,kruti,001,2023-10-18_12h19.52.487,oct 9 class,2023.2.2,119.64250724903314,2023-10-18 12h20.00.654260 +0530,
-50,x,sequential,0,0,0,0,,,,,5,1,21,1,266.5834576670313,,,,,,,,,,,,,,266.5780502919806,0.605191582988482,267.64403000002494,x,1,0.45820366602856666,None,kruti,001,2023-10-18_12h19.52.487,oct 9 class,2023.2.2,119.64250724903314,2023-10-18 12h20.00.654260 +0530,
50,c,sequential,0,0,0,0,,,,,5,2,22,2,267.65192620799644,,,,,,,,,,,,,,267.64475633302936,0.6058501669904217,268.99466195801506,c,1,0.7318550829659216,None,kruti,001,2023-10-18_12h19.52.487,oct 9 class,2023.2.2,119.64250724903314,2023-10-18 12h20.00.654260 +0530,
150,v,sequential,0,0,0,0,,,,,5,3,23,3,269.004654999997,,,,,,,,,,,,,,268.995713833021,0.5993250419851393,270.1608658329933,v,1,0.5569448749884032,None,kruti,001,2023-10-18_12h19.52.487,oct 9 class,2023.2.2,119.64250724903314,2023-10-18 12h20.00.654260 +0530,
-150,z,sequential,0,0,0,0,,,,,6,0,24,0,270.1773253750289,,,,,,,,,,,,,,270.161878917017,0.603065749979578,271.1773347919807,z,1,0.39905487501528114,None,kruti,001,2023-10-18_12h19.52.487,oct 9 class,2023.2.2,119.64250724903314,2023-10-18 12h20.00.654260 +0530,
-50,x,sequential,0,0,0,0,,,,,6,1,25,1,271.1940467500244,,,,,,,,,,,,,,271.1782583750319,0.5993405409972183,272.2777788329986,x,1,0.49961287499172613,None,kruti,001,2023-10-18_12h19.52.487,oct 9 class,2023.2.2,119.64250724903314,2023-10-18 12h20.00.654260 +0530,
50,c,sequential,0,0,0,0,,,,,6,2,26,2,272.2838285419857,,,,,,,,,,,,,,272.27844358299626,0.6051757920067757,273.4344270420261,c,1,0.544915416976437,None,kruti,001,2023-10-18_12h19.52.487,oct 9 class,2023.2.2,119.64250724903314,2023-10-18 12h20.00.654260 +0530,
150,v,sequential,0,0,0,0,,,,,6,3,27,3,273.4429692500271,,,,,,,,,,,,,,273.43507712503197,0.6007840419770218,274.52680720802164,v,1,0.48099191702203825,None,kruti,001,2023-10-18_12h19.52.487,oct 9 class,2023.2.2,119.64250724903314,2023-10-18 12h20.00.654260 +0530,
-150,z,sequential,0,0,0,0,,,,,7,0,28,0,274.53361141699133,,,,,,,,,,,,,,274.52766195801087,0.5992980839801021,275.6720307079959,z,1,0.5388140410068445,None,kruti,001,2023-10-18_12h19.52.487,oct 9 class,2023.2.2,119.64250724903314,2023-10-18 12h20.00.654260 +0530,
-50,x,sequential,0,0,0,0,,,,,7,1,29,1,275.6798705420224,,,,,,,,,,,,,,275.67269570799544,0.6043291669921018,276.8170916250092,x,1,0.5382022500270978,None,kruti,001,2023-10-18_12h19.52.487,oct 9 class,2023.2.2,119.64250724903314,2023-10-18 12h20.00.654260 +0530,
50,c,sequential,0,0,0,0,,,,,7,2,30,2,276.82621500000823,,,,,,,,,,,,,,276.81776262499625,0.6012322500464506,278.08336783299455,c,1,0.6615338340052404,None,kruti,001,2023-10-18_12h19.52.487,oct 9 class,2023.2.2,119.64250724903314,2023-10-18 12h20.00.654260 +0530,
150,v,sequential,0,0,0,0,,,,,7,3,31,3,278.09331791702425,,,,,,,,,,,,,,278.0840318329865,0.5999115000013262,279.1290041669854,v,1,0.44461287499871105,None,kruti,001,2023-10-18_12h19.52.487,oct 9 class,2023.2.2,119.64250724903314,2023-10-18 12h20.00.654260 +0530,
-150,z,sequential,0,0,0,0,,,,,8,0,32,0,279.13640441698954,,,,,,,,,,,,,,279.12973037501797,0.6034371669520624,280.244327375025,z,1,0.5015936249983497,None,kruti,001,2023-10-18_12h19.52.487,oct 9 class,2023.2.2,119.64250724903314,2023-10-18 12h20.00.654260 +0530,
-50,x,sequential,0,0,0,0,,,,,8,1,33,1,280.2552864170284,,,,,,,,,,,,,,280.2461306669866,0.6059563750168309,281.4841249170131,x,1,0.6289978749700822,None,kruti,001,2023-10-18_12h19.52.487,oct 9 class,2023.2.2,119.64250724903314,2023-10-18 12h20.00.654260 +0530,
50,c,sequential,0,0,0,0,,,,,8,2,34,2,281.49312570801703,,,,,,,,,,,,,,281.4847665000125,0.5993183749960735,282.94384100002935,c,1,0.854800958011765,None,kruti,001,2023-10-18_12h19.52.487,oct 9 class,2023.2.2,119.64250724903314,2023-10-18 12h20.00.654260 +0530,
150,v,sequential,0,0,0,0,,,,,8,3,35,3,282.9509191249963,,,,,,,,,,,,,,282.9444870830048,0.6058119580266066,284.0438251250307,v,1,0.4883064170135185,None,kruti,001,2023-10-18_12h19.52.487,oct 9 class,2023.2.2,119.64250724903314,2023-10-18 12h20.00.654260 +0530,
-150,z,sequential,0,0,0,0,,,,,9,0,36,0,284.0509843750042,,,,,,,,,,,,,,284.044478750031,0.6057372500072233,285.0937632920104,z,1,0.43852362502366304,None,kruti,001,2023-10-18_12h19.52.487,oct 9 class,2023.2.2,119.64250724903314,2023-10-18 12h20.00.654260 +0530,
-50,x,sequential,0,0,0,0,,,,,9,1,37,1,285.101065750001,,,,,,,,,,,,,,285.09442529198714,0.6057882080203854,286.4672512499965,x,1,0.7653344999998808,None,kruti,001,2023-10-18_12h19.52.487,oct 9 class,2023.2.2,119.64250724903314,2023-10-18 12h20.00.654260 +0530,
50,c,sequential,0,0,0,0,,,,,9,2,38,2,286.47658529202454,,,,,,,,,,,,,,286.4679178330116,0.5990251670009457,287.63387479202356,c,1,0.565402832988184,None,kruti,001,2023-10-18_12h19.52.487,oct 9 class,2023.2.2,119.64250724903314,2023-10-18 12h20.00.654260 +0530,
150,v,sequential,0,0,0,0,,,,,9,3,39,3,287.6431785420282,,,,,,,,,,,,,,287.6345255000051,0.5995055839885026,288.71768170798896,v,1,0.47689262503990903,None,kruti,001,2023-10-18_12h19.52.487,oct 9 class,2023.2.2,119.64250724903314,2023-10-18 12h20.00.654260 +0530,
-150,z,sequential,0,0,0,0,,,,,10,0,40,0,288.72652387502603,,,,,,,,,,,,,,288.7183475000202,0.6082605000119656,289.7670628330088,z,1,0.43758441699901596,None,kruti,001,2023-10-18_12h19.52.487,oct 9 class,2023.2.2,119.64250724903314,2023-10-18 12h20.00.654260 +0530,
-50,x,sequential,0,0,0,0,,,,,10,1,41,1,289.77649258298334,,,,,,,,,,,,,,289.7677114169928,0.5990812079980969,290.8174793330254,x,1,0.4483202080009505,None,kruti,001,2023-10-18_12h19.52.487,oct 9 class,2023.2.2,119.64250724903314,2023-10-18 12h20.00.654260 +0530,
50,c,sequential,0,0,0,0,,,,,10,2,42,2,290.82637270801933,,,,,,,,,,,,,,290.8181295419927,0.5991374169825576,291.76752970798407,c,1,0.3453121249913238,None,kruti,001,2023-10-18_12h19.52.487,oct 9 class,2023.2.2,119.64250724903314,2023-10-18 12h20.00.654260 +0530,
150,v,sequential,0,0,0,0,,,,,10,3,43,3,291.77642175002256,,,,,,,,,,,,,,291.76821424998343,0.600041042023804,292.76038699998753,v,1,0.38364487496437505,None,kruti,001,2023-10-18_12h19.52.487,oct 9 class,2023.2.2,119.64250724903314,2023-10-18 12h20.00.654260 +0530,
-150,z,sequential,0,0,0,0,,,,,11,0,44,0,292.7678705829894,,,,,,,,,,,,,,292.7610514999833,0.5990108330151998,293.76004454202484,z,1,0.39460937498370185,None,kruti,001,2023-10-18_12h19.52.487,oct 9 class,2023.2.2,119.64250724903314,2023-10-18 12h20.00.654260 +0530,
-50,x,sequential,0,0,0,0,,,,,11,1,45,1,293.767388999986,,,,,,,,,,,,,,293.76070945803076,0.605737957987003,294.71740887500346,x,1,0.34923366602743044,None,kruti,001,2023-10-18_12h19.52.487,oct 9 class,2023.2.2,119.64250724903314,2023-10-18 12h20.00.654260 +0530,
50,c,sequential,0,0,0,0,,,,,11,2,46,2,294.72582400002284,,,,,,,,,,,,,,294.71807695803,0.6085764160379767,295.67693416698603,c,1,0.3470549170160666,None,kruti,001,2023-10-18_12h19.52.487,oct 9 class,2023.2.2,119.64250724903314,2023-10-18 12h20.00.654260 +0530,
150,v,sequential,0,0,0,0,,,,,11,3,47,3,295.6842921670177,,,,,,,,,,,,,,295.67759979201946,0.5990120409987867,296.593563582981,v,1,0.3073268330190331,None,kruti,001,2023-10-18_12h19.52.487,oct 9 class,2023.2.2,119.64250724903314,2023-10-18 12h20.00.654260 +0530,
-150,z,sequential,0,0,0,0,,,,,12,0,48,0,296.6006977080251,,,,,,,,,,,,,,296.59420695801964,0.6058354999986477,297.5270349580096,z,1,0.32455866696545854,None,kruti,001,2023-10-18_12h19.52.487,oct 9 class,2023.2.2,119.64250724903314,2023-10-18 12h20.00.654260 +0530,
-50,x,sequential,0,0,0,0,,,,,12,1,49,1,297.5344282920123,,,,,,,,,,,,,,297.52770375000546,0.5990353749948554,298.9103567079874,x,1,0.7790727079845965,None,kruti,001,2023-10-18_12h19.52.487,oct 9 class,2023.2.2,119.64250724903314,2023-10-18 12h20.00.654260 +0530,
50,c,sequential,0,0,0,0,,,,,12,2,50,2,298.9176188330166,,,,,,,,,,,,,,298.9110174580128,0.60562770802062,299.86707249999745,c,1,0.3491693749674596,None,kruti,001,2023-10-18_12h19.52.487,oct 9 class,2023.2.2,119.64250724903314,2023-10-18 12h20.00.654260 +0530,
150,v,sequential,0,0,0,0,,,,,12,3,51,3,299.8764067920274,,,,,,,,,,,,,,299.8677215829957,0.5995760420337319,300.7931486670277,v,1,0.32302195800002664,None,kruti,001,2023-10-18_12h19.52.487,oct 9 class,2023.2.2,119.64250724903314,2023-10-18 12h20.00.654260 +0530,
-150,z,sequential,0,0,0,0,,,,,13,0,52,0,300.79911187500693,,,,,,,,,,,,,,300.7938238750212,0.5993574159801938,301.8172474169987,z,1,0.42062666604761034,None,kruti,001,2023-10-18_12h19.52.487,oct 9 class,2023.2.2,119.64250724903314,2023-10-18 12h20.00.654260 +0530,
-50,x,sequential,0,0,0,0,,,,,13,1,53,1,301.8264460419887,,,,,,,,,,,,,,301.8178948329878,0.5991675419500098,302.7853527080151,x,1,0.3600967499660328,None,kruti,001,2023-10-18_12h19.52.487,oct 9 class,2023.2.2,119.64250724903314,2023-10-18 12h20.00.654260 +0530,
50,c,sequential,0,0,0,0,,,,,13,2,54,2,302.79296258301474,,,,,,,,,,,,,,302.786043375032,0.6072741670068353,303.83522950002225,c,1,0.43379391700727865,None,kruti,001,2023-10-18_12h19.52.487,oct 9 class,2023.2.2,119.64250724903314,2023-10-18 12h20.00.654260 +0530,
150,v,sequential,0,0,0,0,,,,,13,3,55,3,303.84282991703367,,,,,,,,,,,,,,303.83589554199716,0.6073724589659832,304.74340791703435,v,1,0.29701516701607034,None,kruti,001,2023-10-18_12h19.52.487,oct 9 class,2023.2.2,119.64250724903314,2023-10-18 12h20.00.654260 +0530,
-150,z,sequential,0,0,0,0,,,,,14,0,56,0,304.7508585000178,,,,,,,,,,,,,,304.7440842500073,0.5991521249525249,305.6934790830128,z,1,0.3411939999787137,None,kruti,001,2023-10-18_12h19.52.487,oct 9 class,2023.2.2,119.64250724903314,2023-10-18 12h20.00.654260 +0530,
-50,x,sequential,0,0,0,0,,,,,14,1,57,1,305.70065395801794,,,,,,,,,,,,,,305.694127166993,0.5990011249668896,306.8096246669884,x,1,0.5109095000079833,None,kruti,001,2023-10-18_12h19.52.487,oct 9 class,2023.2.2,119.64250724903314,2023-10-18 12h20.00.654260 +0530,
50,c,sequential,0,0,0,0,,,,,14,2,58,2,306.8168203330133,,,,,,,,,,,,,,306.81028437498026,0.6055798750021495,307.94298599998,c,1,0.5187157089821994,None,kruti,001,2023-10-18_12h19.52.487,oct 9 class,2023.2.2,119.64250724903314,2023-10-18 12h20.00.654260 +0530,
150,v,sequential,0,0,0,0,,,,,14,3,59,3,307.9500907920301,,,,,,,,,,,,,,307.9436265419936,0.5994283329928294,308.8602809170261,v,1,0.31122495798626915,None,kruti,001,2023-10-18_12h19.52.487,oct 9 class,2023.2.2,119.64250724903314,2023-10-18 12h20.00.654260 +0530,
-150,z,sequential,0,0,0,0,,,,,15,0,60,0,308.8676631670096,,,,,,,,,,,,,,308.8609646669938,0.6057016659760848,309.75030866701854,z,1,0.2805192500236444,None,kruti,001,2023-10-18_12h19.52.487,oct 9 class,2023.2.2,119.64250724903314,2023-10-18 12h20.00.654260 +0530,
-50,x,sequential,0,0,0,0,,,,,15,1,61,1,309.75947604200337,,,,,,,,,,,,,,309.75096512498567,0.6087645419756882,310.74323141702916,x,1,0.378269792010542,None,kruti,001,2023-10-18_12h19.52.487,oct 9 class,2023.2.2,119.64250724903314,2023-10-18 12h20.00.654260 +0530,
50,c,sequential,0,0,0,0,,,,,15,2,62,2,310.7509563330095,,,,,,,,,,,,,,310.7439474579878,0.5991201670258306,311.8929652920342,c,1,0.5413359579979442,None,kruti,001,2023-10-18_12h19.52.487,oct 9 class,2023.2.2,119.64250724903314,2023-10-18 12h20.00.654260 +0530,
150,v,sequential,0,0,0,0,,,,,15,3,63,3,311.9003195419791,,,,,,,,,,,,,,311.89360920799663,0.6060178749612533,312.90195545798633,v,1,0.3937994169536978,None,kruti,001,2023-10-18_12h19.52.487,oct 9 class,2023.2.2,119.64250724903314,2023-10-18 12h20.00.654260 +0530,
-150,z,sequential,0,0,0,0,,,,,16,0,64,0,312.9093047080096,,,,,,,,,,,,,,312.9026157500339,0.6072140419855714,314.50952916702954,z,1,0.9906163749983534,None,kruti,001,2023-10-18_12h19.52.487,oct 9 class,2023.2.2,119.64250724903314,2023-10-18 12h20.00.654260 +0530,
-50,x,sequential,0,0,0,0,,,,,16,1,65,1,314.5156803330174,,,,,,,,,,,,,,314.5102096250048,0.5990851250244305,315.5173622079892,x,1,0.40656391700031236,None,kruti,001,2023-10-18_12h19.52.487,oct 9 class,2023.2.2,119.64250724903314,2023-10-18 12h20.00.654260 +0530,
50,c,sequential,0,0,0,0,,,,,16,2,66,2,315.52594995801337,,,,,,,,,,,,,,315.5180100830039,0.6014725840068422,316.62668816698715,c,1,0.5014396660262719,None,kruti,001,2023-10-18_12h19.52.487,oct 9 class,2023.2.2,119.64250724903314,2023-10-18 12h20.00.654260 +0530,
150,v,sequential,0,0,0,0,,,,,16,3,67,3,316.63416929199593,,,,,,,,,,,,,,316.627340624982,0.6058994579943828,317.8268777499907,v,1,0.5840655419742689,None,kruti,001,2023-10-18_12h19.52.487,oct 9 class,2023.2.2,119.64250724903314,2023-10-18 12h20.00.654260 +0530,
-150,z,sequential,0,0,0,0,,,,,17,0,68,0,317.83425216702744,,,,,,,,,,,,,,317.82755899999756,0.6073573339963332,319.1770564169856,z,1,0.741618332976941,None,kruti,001,2023-10-18_12h19.52.487,oct 9 class,2023.2.2,119.64250724903314,2023-10-18 12h20.00.654260 +0530,
-50,x,sequential,0,0,0,0,,,,,17,1,69,1,319.1842754170066,,,,,,,,,,,,,,319.1777348750038,0.6055115420022048,320.133546750003,x,1,0.34682658297242597,None,kruti,001,2023-10-18_12h19.52.487,oct 9 class,2023.2.2,119.64250724903314,2023-10-18 12h20.00.654260 +0530,
50,c,sequential,0,0,0,0,,,,,17,2,70,2,320.1426180420094,,,,,,,,,,,,,,320.1342358330148,0.5993365419562906,321.9928900829982,c,1,1.2579620420001447,None,kruti,001,2023-10-18_12h19.52.487,oct 9 class,2023.2.2,119.64250724903314,2023-10-18 12h20.00.654260 +0530,
150,v,sequential,0,0,0,0,,,,,17,3,71,3,321.9988868330256,,,,,,,,,,,,,,321.99355691700475,0.5994339580065571,322.9837820419925,v,1,0.38937387499026954,None,kruti,001,2023-10-18_12h19.52.487,oct 9 class,2023.2.2,119.64250724903314,2023-10-18 12h20.00.654260 +0530,
-150,z,sequential,0,0,0,0,,,,,18,0,72,0,322.99194700003136,,,,,,,,,,,,,,322.9844635829795,0.599091749987565,323.9835084580118,z,1,0.3932145420112647,None,kruti,001,2023-10-18_12h19.52.487,oct 9 class,2023.2.2,119.64250724903314,2023-10-18 12h20.00.654260 +0530,
-50,x,sequential,0,0,0,0,,,,,18,1,73,1,323.99263137503294,,,,,,,,,,,,,,323.98416325001745,0.5995554159744643,324.8670448330231,x,1,0.27946624998003244,None,kruti,001,2023-10-18_12h19.52.487,oct 9 class,2023.2.2,119.64250724903314,2023-10-18 12h20.00.654260 +0530,
50,c,sequential,0,0,0,0,,,,,18,2,74,2,324.87578995799413,,,,,,,,,,,,,,324.86769187502796,0.6006075830082409,325.8167830419843,c,1,0.3437077500275336,None,kruti,001,2023-10-18_12h19.52.487,oct 9 class,2023.2.2,119.64250724903314,2023-10-18 12h20.00.654260 +0530,
150,v,sequential,0,0,0,0,,,,,18,3,75,3,325.8259534999961,,,,,,,,,,,,,,325.81746729201404,0.5991846249671653,326.9500744580291,v,1,0.531250958039891,None,kruti,001,2023-10-18_12h19.52.487,oct 9 class,2023.2.2,119.64250724903314,2023-10-18 12h20.00.654260 +0530,
-150,z,sequential,0,0,0,0,,,,,19,0,76,0,326.959321332979,,,,,,,,,,,,,,326.95073620800395,0.6085514579899609,328.3178947920096,z,1,0.7506569160032086,None,kruti,001,2023-10-18_12h19.52.487,oct 9 class,2023.2.2,119.64250724903314,2023-10-18 12h20.00.654260 +0530,
-50,x,sequential,0,0,0,0,,,,,19,1,77,1,328.3258949170122,,,,,,,,,,,,,,328.3185666250065,0.6074565409799106,329.34323641698575,x,1,0.41497104096924886,None,kruti,001,2023-10-18_12h19.52.487,oct 9 class,2023.2.2,119.64250724903314,2023-10-18 12h20.00.654260 +0530,
50,c,sequential,0,0,0,0,,,,,19,2,78,2,329.35049133299617,,,,,,,,,,,,,,329.3439043330145,0.6052260419819504,330.22643495799275,c,1,0.2688798750168644,None,kruti,001,2023-10-18_12h19.52.487,oct 9 class,2023.2.2,119.64250724903314,2023-10-18 12h20.00.654260 +0530,
150,v,sequential,0,0,0,0,,,,,19,3,79,3,330.2335319580161,,,,,,,,,,,,,,330.2270773330238,0.6083578329999,331.1666448750184,v,1,0.3297797089908272,None,kruti,001,2023-10-18_12h19.52.487,oct 9 class,2023.2.2,119.64250724903314,2023-10-18 12h20.00.654260 +0530,
-150,z,sequential,0,0,0,0,,,,,20,0,80,0,331.1758453749935,,,,,,,,,,,,,,331.1672956669936,0.6089313330012374,332.2093396669952,z,1,0.43045412498759106,None,kruti,001,2023-10-18_12h19.52.487,oct 9 class,2023.2.2,119.64250724903314,2023-10-18 12h20.00.654260 +0530,
-50,x,sequential,0,0,0,0,,,,,20,1,81,1,332.2152904170216,,,,,,,,,,,,,,332.2100113329943,0.6057497080182657,333.05199737503426,x,1,0.2273348750313744,None,kruti,001,2023-10-18_12h19.52.487,oct 9 class,2023.2.2,119.64250724903314,2023-10-18 12h20.00.654260 +0530,
50,c,sequential,0,0,0,0,,,,,20,2,82,2,333.05910633300664,,,,,,,,,,,,,,333.0526630830136,0.6065593750099652,334.0930477500078,c,1,0.42481670901179314,None,kruti,001,2023-10-18_12h19.52.487,oct 9 class,2023.2.2,119.64250724903314,2023-10-18 12h20.00.654260 +0530,
150,v,sequential,0,0,0,0,,,,,20,3,83,3,334.1002597080078,,,,,,,,,,,,,,334.09369620803045,0.5990353329689242,335.34305816702545,v,1,0.6415620829793625,None,kruti,001,2023-10-18_12h19.52.487,oct 9 class,2023.2.2,119.64250724903314,2023-10-18 12h20.00.654260 +0530,
-150,z,sequential,0,0,0,0,,,,,21,0,84,0,335.3505005420302,,,,,,,,,,,,,,335.34372350003105,0.6055350000387989,336.3830633329926,z,1,0.4279917500098236,None,kruti,001,2023-10-18_12h19.52.487,oct 9 class,2023.2.2,119.64250724903314,2023-10-18 12h20.00.654260 +0530,
-50,x,sequential,0,0,0,0,,,,,21,1,85,1,336.39183870801935,,,,,,,,,,,,,,336.38371804199414,0.5992795830243267,337.34970500000054,x,1,0.3652731659822166,None,kruti,001,2023-10-18_12h19.52.487,oct 9 class,2023.2.2,119.64250724903314,2023-10-18 12h20.00.654260 +0530,
50,c,sequential,0,0,0,0,,,,,21,2,86,2,337.35855891701067,,,,,,,,,,,,,,337.3503871670109,0.5992714170133695,338.416968333011,c,1,0.46437033399706706,None,kruti,001,2023-10-18_12h19.52.487,oct 9 class,2023.2.2,119.64250724903314,2023-10-18 12h20.00.654260 +0530,
150,v,sequential,0,0,0,0,,,,,21,3,87,3,338.4256424169871,,,,,,,,,,,,,,338.4176410830114,0.6004261249909177,339.40963516698685,v,1,0.38970541703747585,None,kruti,001,2023-10-18_12h19.52.487,oct 9 class,2023.2.2,119.64250724903314,2023-10-18 12h20.00.654260 +0530,
-150,z,sequential,0,0,0,0,,,,,22,0,88,0,339.4157963329926,,,,,,,,,,,,,,339.4103028749814,0.5991056669736281,340.3667671250296,z,1,0.35300229099811986,None,kruti,001,2023-10-18_12h19.52.487,oct 9 class,2023.2.2,119.64250724903314,2023-10-18 12h20.00.654260 +0530,
-50,x,sequential,0,0,0,0,,,,,22,1,89,1,340.3756229170249,,,,,,,,,,,,,,340.3674729579943,0.6084399999817833,341.39299108303385,x,1,0.41184358298778534,None,kruti,001,2023-10-18_12h19.52.487,oct 9 class,2023.2.2,119.64250724903314,2023-10-18 12h20.00.654260 +0530,
50,c,sequential,0,0,0,0,,,,,22,2,90,2,341.40046112501295,,,,,,,,,,,,,,341.39367254200624,0.605545207974501,342.34976474998984,c,1,0.3470888340380043,None,kruti,001,2023-10-18_12h19.52.487,oct 9 class,2023.2.2,119.64250724903314,2023-10-18 12h20.00.654260 +0530,
150,v,sequential,0,0,0,0,,,,,22,3,91,3,342.3589975000359,,,,,,,,,,,,,,342.3504076669924,0.5993776670075022,343.25904916698346,v,1,0.30301441601477563,None,kruti,001,2023-10-18_12h19.52.487,oct 9 class,2023.2.2,119.64250724903314,2023-10-18 12h20.00.654260 +0530,
-150,z,sequential,0,0,0,0,,,,,23,0,92,0,343.2663727499894,,,,,,,,,,,,,,343.25972345803166,0.5994918749784119,344.2593847080134,z,1,0.3969539999961853,None,kruti,001,2023-10-18_12h19.52.487,oct 9 class,2023.2.2,119.64250724903314,2023-10-18 12h20.00.654260 +0530,
-50,x,sequential,0,0,0,0,,,,,23,1,93,1,344.2665635829908,,,,,,,,,,,,,,344.2600374169997,0.5991421249927953,345.19276599999284,x,1,0.32707708299858496,None,kruti,001,2023-10-18_12h19.52.487,oct 9 class,2023.2.2,119.64250724903314,2023-10-18 12h20.00.654260 +0530,
50,c,sequential,0,0,0,0,,,,,23,2,94,2,345.1999607079779,,,,,,,,,,,,,,345.1934299169807,0.60564262495609,346.13361633301247,c,1,0.3332930419710465,None,kruti,001,2023-10-18_12h19.52.487,oct 9 class,2023.2.2,119.64250724903314,2023-10-18 12h20.00.654260 +0530,
150,v,sequential,0,0,0,0,,,,,23,3,95,3,346.1417091669864,,,,,,,,,,,,,,346.13427354203304,0.6084508330095559,347.0426690420136,v,1,0.290599416999612,None,kruti,001,2023-10-18_12h19.52.487,oct 9 class,2023.2.2,119.64250724903314,2023-10-18 12h20.00.654260 +0530,
-150,z,sequential,0,0,0,0,,,,,24,0,96,0,347.0486450419994,,,,,,,,,,,,,,347.0433295419789,0.5991558749810793,347.9928750830004,z,1,0.3420803750050254,None,kruti,001,2023-10-18_12h19.52.487,oct 9 class,2023.2.2,119.64250724903314,2023-10-18 12h20.00.654260 +0530,
-50,x,sequential,0,0,0,0,,,,,24,1,97,1,348.00029958301457,,,,,,,,,,,,,,347.99353520799195,0.6057114999857731,348.950127292017,x,1,0.34629366698209196,None,kruti,001,2023-10-18_12h19.52.487,oct 9 class,2023.2.2,119.64250724903314,2023-10-18 12h20.00.654260 +0530,
50,c,sequential,0,0,0,0,,,,,24,2,98,2,348.9583833750221,,,,,,,,,,,,,,348.95082399999956,0.6002902499749325,349.8837868330302,c,1,0.332148916029837,None,kruti,001,2023-10-18_12h19.52.487,oct 9 class,2023.2.2,119.64250724903314,2023-10-18 12h20.00.654260 +0530,
150,v,sequential,0,0,0,0,,,,,24,3,99,3,349.8922731250059,,,,,,,,,,,,,,349.88446099997964,0.6080020000226796,350.73249945801217,v,1,0.23574854200705886,None,kruti,001,2023-10-18_12h19.52.487,oct 9 class,2023.2.2,119.64250724903314,2023-10-18 12h20.00.654260 +0530,
-150,z,sequential,0,0,0,0,,,,,25,0,100,0,350.7417577080196,,,,,,,,,,,,,,350.7331594580319,0.5991147920140065,351.69280012499075,z,1,0.35829737497260794,None,kruti,001,2023-10-18_12h19.52.487,oct 9 class,2023.2.2,119.64250724903314,2023-10-18 12h20.00.654260 +0530,
-50,x,sequential,0,0,0,0,,,,,25,1,101,1,351.69864575000247,,,,,,,,,,,,,,351.6934503749944,0.6058716249535792,352.57601725001587,x,1,0.26748816698091105,None,kruti,001,2023-10-18_12h19.52.487,oct 9 class,2023.2.2,119.64250724903314,2023-10-18 12h20.00.654260 +0530,
50,c,sequential,0,0,0,0,,,,,25,2,102,2,352.58350012497976,,,,,,,,,,,,,,352.5766943329945,0.6056981249712408,353.4999011250329,c,1,0.31146358302794397,None,kruti,001,2023-10-18_12h19.52.487,oct 9 class,2023.2.2,119.64250724903314,2023-10-18 12h20.00.654260 +0530,
150,v,sequential,0,0,0,0,,,,,25,3,103,3,353.5081416250323,,,,,,,,,,,,,,353.50054745801026,0.6001430000178516,354.37609999999404,v,1,0.2699129999964498,None,kruti,001,2023-10-18_12h19.52.487,oct 9 class,2023.2.2,119.64250724903314,2023-10-18 12h20.00.654260 +0530,
-150,z,sequential,0,0,0,0,,,,,26,0,104,0,354.3835789579898,,,,,,,,,,,,,,354.3767787920078,0.5990758329862729,355.19287429202814,z,1,0.21099745895480737,None,kruti,001,2023-10-18_12h19.52.487,oct 9 class,2023.2.2,119.64250724903314,2023-10-18 12h20.00.654260 +0530,
-50,x,sequential,0,0,0,0,,,,,26,1,105,1,355.2004610419972,,,,,,,,,,,,,,355.19353170803515,0.6057589999982156,355.9494308750145,x,1,0.14339425001526251,None,kruti,001,2023-10-18_12h19.52.487,oct 9 class,2023.2.2,119.64250724903314,2023-10-18 12h20.00.654260 +0530,
50,c,sequential,0,0,0,0,,,,,26,2,106,2,355.95878379198257,,,,,,,,,,,,,,355.9500777919893,0.5991499169613235,356.8659907919937,c,1,0.3123773749684915,None,kruti,001,2023-10-18_12h19.52.487,oct 9 class,2023.2.2,119.64250724903314,2023-10-18 12h20.00.654260 +0530,
150,v,sequential,0,0,0,0,,,,,26,3,107,3,356.87492783297785,,,,,,,,,,,,,,356.8666630000225,0.599180624994915,357.6093686670065,v,1,0.14076575002400205,None,kruti,001,2023-10-18_12h19.52.487,oct 9 class,2023.2.2,119.64250724903314,2023-10-18 12h20.00.654260 +0530,
-150,z,sequential,0,0,0,0,,,,,27,0,108,0,357.61532924999483,,,,,,,,,,,,,,357.6100288750022,0.6052581669646315,358.51576608303003,z,1,0.29469324997626245,None,kruti,001,2023-10-18_12h19.52.487,oct 9 class,2023.2.2,119.64250724903314,2023-10-18 12h20.00.654260 +0530,
-50,x,sequential,0,0,0,0,,,,,27,1,109,1,358.5249848749954,,,,,,,,,,,,,,358.51642125000944,0.5996178750065155,359.2996218749904,x,1,0.17806724994443357,None,kruti,001,2023-10-18_12h19.52.487,oct 9 class,2023.2.2,119.64250724903314,2023-10-18 12h20.00.654260 +0530,
50,c,sequential,0,0,0,0,,,,,27,2,110,2,359.30874145799316,,,,,,,,,,,,,,359.3002849579789,0.5990460839821026,360.24220475001493,c,1,0.3403993749525398,None,kruti,001,2023-10-18_12h19.52.487,oct 9 class,2023.2.2,119.64250724903314,2023-10-18 12h20.00.654260 +0530,
150,v,sequential,0,0,0,0,,,,,27,3,111,3,360.2495991670294,,,,,,,,,,,,,,360.2428907920257,0.5996205830015242,361.1088078750181,v,1,0.2603353750309907,None,kruti,001,2023-10-18_12h19.52.487,oct 9 class,2023.2.2,119.64250724903314,2023-10-18 12h20.00.654260 +0530,
-150,z,sequential,0,0,0,0,,,,,28,0,112,0,361.1162099579815,,,,,,,,,,,,,,361.1095000000205,0.5996077920426615,361.90213125001173,z,1,0.18357291701249778,None,kruti,001,2023-10-18_12h19.52.487,oct 9 class,2023.2.2,119.64250724903314,2023-10-18 12h20.00.654260 +0530,
-50,x,sequential,0,0,0,0,,,,,28,1,113,1,361.9091928330017,,,,,,,,,,,,,,361.90281545801554,0.6062184579786845,362.73307329200907,x,1,0.21718470798805356,None,kruti,001,2023-10-18_12h19.52.487,oct 9 class,2023.2.2,119.64250724903314,2023-10-18 12h20.00.654260 +0530,
50,c,sequential,0,0,0,0,,,,,28,2,114,2,362.7421457080054,,,,,,,,,,,,,,362.7337397080264,0.608499291993212,363.6514776669792,c,1,0.3006259170360863,None,kruti,001,2023-10-18_12h19.52.487,oct 9 class,2023.2.2,119.64250724903314,2023-10-18 12h20.00.654260 +0530,
150,v,sequential,0,0,0,0,,,,,28,3,115,3,363.6588981249952,,,,,,,,,,,,,,363.65214916702826,0.6067718339618295,364.4175852499902,v,1,0.15432929201051593,None,kruti,001,2023-10-18_12h19.52.487,oct 9 class,2023.2.2,119.64250724903314,2023-10-18 12h20.00.654260 +0530,
-150,z,sequential,0,0,0,0,,,,,29,0,116,0,364.42674170801183,,,,,,,,,,,,,,364.41833329200745,0.6073629590100609,365.35916304198327,z,1,0.32443375000730157,None,kruti,001,2023-10-18_12h19.52.487,oct 9 class,2023.2.2,119.64250724903314,2023-10-18 12h20.00.654260 +0530,
-50,x,sequential,0,0,0,0,,,,,29,1,117,1,365.37602212501224,,,,,,,,,,,,,,365.3599288749974,0.6026982920011505,366.19969774998026,x,1,0.23015675001079217,None,kruti,001,2023-10-18_12h19.52.487,oct 9 class,2023.2.2,119.64250724903314,2023-10-18 12h20.00.654260 +0530,
50,c,sequential,0,0,0,0,,,,,29,2,118,2,366.2084493750008,,,,,,,,,,,,,,366.20043562498176,0.5992526249610819,367.0926486669923,c,1,0.2849175420124084,None,kruti,001,2023-10-18_12h19.52.487,oct 9 class,2023.2.2,119.64250724903314,2023-10-18 12h20.00.654260 +0530,
150,v,sequential,0,0,0,0,,,,,29,3,119,3,367.10051254200516,,,,,,,,,,,,,,367.0933251249953,0.5990217499784194,367.98468958301237,v,1,0.2842035830253735,None,kruti,001,2023-10-18_12h19.52.487,oct 9 class,2023.2.2,119.64250724903314,2023-10-18 12h20.00.654260 +0530,
-150,z,sequential,0,0,0,0,,,,,30,0,120,0,367.9914835829986,,,,,,,,,,,,,,367.9853642079979,0.6066272500320338,368.79263991699554,z,1,0.1950070000020787,None,kruti,001,2023-10-18_12h19.52.487,oct 9 class,2023.2.2,119.64250724903314,2023-10-18 12h20.00.654260 +0530,
-50,x,sequential,0,0,0,0,,,,,30,1,121,1,368.80151100002695,,,,,,,,,,,,,,368.79365470801713,0.6063590419944376,369.63474958302686,x,1,0.2259489999851212,None,kruti,001,2023-10-18_12h19.52.487,oct 9 class,2023.2.2,119.64250724903314,2023-10-18 12h20.00.654260 +0530,
50,c,sequential,0,0,0,0,,,,,30,2,122,2,369.6413464579964,,,,,,,,,,,,,,369.6354029580252,0.6068721249466762,370.58306600002106,c,1,0.3342706669936888,None,kruti,001,2023-10-18_12h19.52.487,oct 9 class,2023.2.2,119.64250724903314,2023-10-18 12h20.00.654260 +0530,
150,v,sequential,0,0,0,0,,,,,30,3,123,3,370.5919712500181,,,,,,,,,,,,,,370.5837243749993,0.6083177499822341,371.40910558303585,v,1,0.20767504203831777,None,kruti,001,2023-10-18_12h19.52.487,oct 9 class,2023.2.2,119.64250724903314,2023-10-18 12h20.00.654260 +0530,
-150,z,sequential,0,0,0,0,,,,,31,0,124,0,371.41640049999114,,,,,,,,,,,,,,371.4097986249835,0.6058695829706267,372.3659579579835,z,1,0.34867520799161866,None,kruti,001,2023-10-18_12h19.52.487,oct 9 class,2023.2.2,119.64250724903314,2023-10-18 12h20.00.654260 +0530,
-50,x,sequential,0,0,0,0,,,,,31,1,125,1,372.37520054198103,,,,,,,,,,,,,,372.3666168330237,0.6014410839998163,373.2591070419876,x,1,0.2845894169877283,None,kruti,001,2023-10-18_12h19.52.487,oct 9 class,2023.2.2,119.64250724903314,2023-10-18 12h20.00.654260 +0530,
50,c,sequential,0,0,0,0,,,,,31,2,126,2,373.26645858300617,,,,,,,,,,,,,,373.2597587920027,0.5990659999661148,374.15907608298585,c,1,0.29550504096550867,None,kruti,001,2023-10-18_12h19.52.487,oct 9 class,2023.2.2,119.64250724903314,2023-10-18 12h20.00.654260 +0530,
150,v,sequential,0,0,0,0,,,,,31,3,127,3,374.16648462502053,,,,,,,,,,,,,,374.15974720800295,0.6059422920225188,375.05076487502083,v,1,0.27660862501943484,None,kruti,001,2023-10-18_12h19.52.487,oct 9 class,2023.2.2,119.64250724903314,2023-10-18 12h20.00.654260 +0530,
-150,z,sequential,0,0,0,0,,,,,32,0,128,0,375.0582710420131,,,,,,,,,,,,,,375.0514218750177,0.6069171249982901,375.97574854199775,z,1,0.31045316701056436,None,kruti,001,2023-10-18_12h19.52.487,oct 9 class,2023.2.2,119.64250724903314,2023-10-18 12h20.00.654260 +0530,
-50,x,sequential,0,0,0,0,,,,,32,1,129,1,375.9832083330257,,,,,,,,,,,,,,375.97642620798433,0.605687458999455,377.0422625420033,x,1,0.4571976670413278,None,kruti,001,2023-10-18_12h19.52.487,oct 9 class,2023.2.2,119.64250724903314,2023-10-18 12h20.00.654260 +0530,
50,c,sequential,0,0,0,0,,,,,32,2,130,2,377.04943233303493,,,,,,,,,,,,,,377.0429124170332,0.6057389590423554,378.12564266700065,c,1,0.4698351669940166,None,kruti,001,2023-10-18_12h19.52.487,oct 9 class,2023.2.2,119.64250724903314,2023-10-18 12h20.00.654260 +0530,
150,v,sequential,0,0,0,0,,,,,32,3,131,3,378.133125708031,,,,,,,,,,,,,,378.1263093330199,0.6059315419988707,378.9922031669994,v,1,0.251314666995313,None,kruti,001,2023-10-18_12h19.52.487,oct 9 class,2023.2.2,119.64250724903314,2023-10-18 12h20.00.654260 +0530,
-150,z,sequential,0,0,0,0,,,,,33,0,132,0,378.9993610000238,,,,,,,,,,,,,,378.9928515829961,0.5990690000471659,379.8339520000154,z,1,0.2335047079832293,None,kruti,001,2023-10-18_12h19.52.487,oct 9 class,2023.2.2,119.64250724903314,2023-10-18 12h20.00.654260 +0530,
-50,x,sequential,0,0,0,0,,,,,33,1,133,1,379.84154062502785,,,,,,,,,,,,,,379.8346117080073,0.6074437909992412,380.7083990829997,x,1,0.2590364999487065,None,kruti,001,2023-10-18_12h19.52.487,oct 9 class,2023.2.2,119.64250724903314,2023-10-18 12h20.00.654260 +0530,
50,c,sequential,0,0,0,0,,,,,33,2,134,2,380.71559483301826,,,,,,,,,,,,,,380.7090617920039,0.5995390419848263,381.5655745000113,c,1,0.25645024998812005,None,kruti,001,2023-10-18_12h19.52.487,oct 9 class,2023.2.2,119.64250724903314,2023-10-18 12h20.00.654260 +0530,
150,v,sequential,0,0,0,0,,,,,33,3,135,3,381.5749928749865,,,,,,,,,,,,,,381.5662263330305,0.5993832499952987,382.4490465419949,v,1,0.27761745802126825,None,kruti,001,2023-10-18_12h19.52.487,oct 9 class,2023.2.2,119.64250724903314,2023-10-18 12h20.00.654260 +0530,
-150,z,sequential,0,0,0,0,,,,,34,0,136,0,382.4582724579959,,,,,,,,,,,,,,382.4496987920138,0.599089625000488,384.0591754170018,z,1,1.0099328339565545,None,kruti,001,2023-10-18_12h19.52.487,oct 9 class,2023.2.2,119.64250724903314,2023-10-18 12h20.00.654260 +0530,
-50,x,sequential,0,0,0,0,,,,,34,1,137,1,384.06523395801196,,,,,,,,,,,,,,384.0598367920029,0.6054245410487056,384.84843008301686,x,1,0.17810879205353558,None,kruti,001,2023-10-18_12h19.52.487,oct 9 class,2023.2.2,119.64250724903314,2023-10-18 12h20.00.654260 +0530,
50,c,sequential,0,0,0,0,,,,,34,2,138,2,384.8582659169915,,,,,,,,,,,,,,384.84907645802014,0.5996461669565178,385.53311283298535,c,1,0.08383083395892754,None,kruti,001,2023-10-18_12h19.52.487,oct 9 class,2023.2.2,119.64250724903314,2023-10-18 12h20.00.654260 +0530,
150,v,sequential,0,0,0,0,,,,,34,3,139,3,385.5415239169961,,,,,,,,,,,,,,385.5337748330203,0.6081046250183135,386.31607354199514,z,0,0.1720509580336511,None,kruti,001,2023-10-18_12h19.52.487,oct 9 class,2023.2.2,119.64250724903314,2023-10-18 12h20.00.654260 +0530,
-150,z,sequential,0,0,0,0,,,,,35,0,140,0,386.3249267920037,,,,,,,,,,,,,,386.3167512920336,0.607966540963389,387.3322072500014,x,0,0.40387783298501745,None,kruti,001,2023-10-18_12h19.52.487,oct 9 class,2023.2.2,119.64250724903314,2023-10-18 12h20.00.654260 +0530,
-50,x,sequential,0,0,0,0,,,,,35,1,141,1,387.3416575000156,,,,,,,,,,,,,,387.33285370800877,0.5993989580310881,388.7489431250142,x,1,0.8128030000370927,None,kruti,001,2023-10-18_12h19.52.487,oct 9 class,2023.2.2,119.64250724903314,2023-10-18 12h20.00.654260 +0530,
50,c,sequential,0,0,0,0,,,,,35,2,142,2,388.75806025002385,,,,,,,,,,,,,,388.74960645800456,0.5992450409685262,389.6422225830029,c,1,0.28025812504347414,None,kruti,001,2023-10-18_12h19.52.487,oct 9 class,2023.2.2,119.64250724903314,2023-10-18 12h20.00.654260 +0530,
150,v,sequential,0,0,0,0,,,,,35,3,143,3,389.6581542500062,,,,,,,,,,,,,,389.644042083004,0.604781209025532,390.6324782919837,v,1,0.3774490419891663,None,kruti,001,2023-10-18_12h19.52.487,oct 9 class,2023.2.2,119.64250724903314,2023-10-18 12h20.00.654260 +0530,
-150,z,sequential,0,0,0,0,,,,,36,0,144,0,390.64141662500333,,,,,,,,,,,,,,390.6331460420042,0.6085640829987824,391.58220474998234,z,1,0.3387030419544317,None,kruti,001,2023-10-18_12h19.52.487,oct 9 class,2023.2.2,119.64250724903314,2023-10-18 12h20.00.654260 +0530,
-50,x,sequential,0,0,0,0,,,,,36,1,145,1,391.5914079580107,,,,,,,,,,,,,,391.5828629169846,0.5990045840153471,392.44215891702333,x,1,0.2581826249952428,None,kruti,001,2023-10-18_12h19.52.487,oct 9 class,2023.2.2,119.64250724903314,2023-10-18 12h20.00.654260 +0530,
50,c,sequential,0,0,0,0,,,,,36,2,146,2,392.4482707499992,,,,,,,,,,,,,,392.4428234579973,0.6058405000367202,393.22524337499635,c,1,0.1671389170223847,None,kruti,001,2023-10-18_12h19.52.487,oct 9 class,2023.2.2,119.64250724903314,2023-10-18 12h20.00.654260 +0530,
150,v,sequential,0,0,0,0,,,,,36,3,147,3,393.23050883301767,,,,,,,,,,,,,,393.22590262501035,0.5990138329798356,394.01577075000387,v,1,0.1843280420289375,None,kruti,001,2023-10-18_12h19.52.487,oct 9 class,2023.2.2,119.64250724903314,2023-10-18 12h20.00.654260 +0530,
-150,z,sequential,0,0,0,0,,,,,37,0,148,0,394.024656708003,,,,,,,,,,,,,,394.01642833300866,0.6086409169947729,394.79178433300694,z,1,0.15895949996775016,None,kruti,001,2023-10-18_12h19.52.487,oct 9 class,2023.2.2,119.64250724903314,2023-10-18 12h20.00.654260 +0530,
-50,x,sequential,0,0,0,0,,,,,37,1,149,1,394.7988249170012,,,,,,,,,,,,,,394.7924352079863,0.6059205839992501,395.6750540829962,x,1,0.26687512500211596,None,kruti,001,2023-10-18_12h19.52.487,oct 9 class,2023.2.2,119.64250724903314,2023-10-18 12h20.00.654260 +0530,
50,c,sequential,0,0,0,0,,,,,37,2,150,2,395.6826912080287,,,,,,,,,,,,,,395.67573154199636,0.5992819999810308,396.52548412501346,c,1,0.24997529102256522,None,kruti,001,2023-10-18_12h19.52.487,oct 9 class,2023.2.2,119.64250724903314,2023-10-18 12h20.00.654260 +0530,
150,v,sequential,0,0,0,0,,,,,37,3,151,3,396.5313608330325,,,,,,,,,,,,,,396.5261573329917,0.6070344999898225,397.3491420830251,v,1,0.21093508298508823,None,kruti,001,2023-10-18_12h19.52.487,oct 9 class,2023.2.2,119.64250724903314,2023-10-18 12h20.00.654260 +0530,
-150,z,sequential,0,0,0,0,,,,,38,0,152,0,397.35725629201625,,,,,,,,,,,,,,397.3498040830018,0.6083261669846252,398.1251332919928,z,1,0.1642022089799866,None,kruti,001,2023-10-18_12h19.52.487,oct 9 class,2023.2.2,119.64250724903314,2023-10-18 12h20.00.654260 +0530,
-50,x,sequential,0,0,0,0,,,,,38,1,153,1,398.13220995798474,,,,,,,,,,,,,,398.1257949999999,0.60583937499905,398.8919278330286,x,1,0.15662525000516325,None,kruti,001,2023-10-18_12h19.52.487,oct 9 class,2023.2.2,119.64250724903314,2023-10-18 12h20.00.654260 +0530,
50,c,sequential,0,0,0,0,,,,,38,2,154,2,398.8993340830202,,,,,,,,,,,,,,398.892657999997,0.5990782919689082,399.64952829200774,c,1,0.14983591699274257,None,kruti,001,2023-10-18_12h19.52.487,oct 9 class,2023.2.2,119.64250724903314,2023-10-18 12h20.00.654260 +0530,
150,v,sequential,0,0,0,0,,,,,38,3,155,3,399.6573765000212,,,,,,,,,,,,,,399.6502278749831,0.6022884160047397,400.41508512501605,v,1,0.15915120899444446,None,kruti,001,2023-10-18_12h19.52.487,oct 9 class,2023.2.2,119.64250724903314,2023-10-18 12h20.00.654260 +0530,
-150,z,sequential,0,0,0,0,,,,,39,0,156,0,400.42402725003194,,,,,,,,,,,,,,400.4157570420066,0.599470957997255,401.1089153329958,z,1,0.0931672080187127,None,kruti,001,2023-10-18_12h19.52.487,oct 9 class,2023.2.2,119.64250724903314,2023-10-18 12h20.00.654260 +0530,
-50,x,sequential,0,0,0,0,,,,,39,1,157,1,401.1164391670027,,,,,,,,,,,,,,401.1096080830321,0.60575816599885,401.96571837499505,x,1,0.2473202919936739,None,kruti,001,2023-10-18_12h19.52.487,oct 9 class,2023.2.2,119.64250724903314,2023-10-18 12h20.00.654260 +0530,
50,c,sequential,0,0,0,0,,,,,39,2,158,2,401.9740161669906,,,,,,,,,,,,,,401.96643612498883,0.6022253339760937,403.14893120800843,c,1,0.5769594589946792,None,kruti,001,2023-10-18_12h19.52.487,oct 9 class,2023.2.2,119.64250724903314,2023-10-18 12h20.00.654260 +0530,
150,v,sequential,0,0,0,0,,,,,39,3,159,3,403.1573104169802,,,,,,,,,,,,,,403.149629749998,0.6010582920280285,404.05837408301886,v,1,0.3011951659573242,None,kruti,001,2023-10-18_12h19.52.487,oct 9 class,2023.2.2,119.64250724903314,2023-10-18 12h20.00.654260 +0530,
-150,z,sequential,0,0,0,0,,,,,40,0,160,0,404.0656807079795,,,,,,,,,,,,,,404.05904054199345,0.5990365829784423,404.8915737500065,z,1,0.22721837495919317,None,kruti,001,2023-10-18_12h19.52.487,oct 9 class,2023.2.2,119.64250724903314,2023-10-18 12h20.00.654260 +0530,
-50,x,sequential,0,0,0,0,,,,,40,1,161,1,404.8987052080338,,,,,,,,,,,,,,404.892248958,0.5991162079735659,405.69879595801467,x,1,0.20598241704283282,None,kruti,001,2023-10-18_12h19.52.487,oct 9 class,2023.2.2,119.64250724903314,2023-10-18 12h20.00.654260 +0530,
50,c,sequential,0,0,0,0,,,,,40,2,162,2,405.7077779999818,,,,,,,,,,,,,,405.6994693329907,0.6085526670212857,406.48194287501974,c,1,0.16952325002057478,None,kruti,001,2023-10-18_12h19.52.487,oct 9 class,2023.2.2,119.64250724903314,2023-10-18 12h20.00.654260 +0530,
150,v,sequential,0,0,0,0,,,,,40,3,163,3,406.49050083302427,,,,,,,,,,,,,,406.48266608302947,0.6086645830073394,407.1821104999981,v,1,0.08493166702101007,None,kruti,001,2023-10-18_12h19.52.487,oct 9 class,2023.2.2,119.64250724903314,2023-10-18 12h20.00.654260 +0530,
-150,z,sequential,0,0,0,0,,,,,41,0,164,0,407.19100391701795,,,,,,,,,,,,,,407.18281949998345,0.5991788749815896,407.98162916698493,z,1,0.19397124997340143,None,kruti,001,2023-10-18_12h19.52.487,oct 9 class,2023.2.2,119.64250724903314,2023-10-18 12h20.00.654260 +0530,
-50,x,sequential,0,0,0,0,,,,,41,1,165,1,407.9905071670073,,,,,,,,,,,,,,407.9822937499848,0.5994892499875277,408.75833179202164,x,1,0.1721612919936888,None,kruti,001,2023-10-18_12h19.52.487,oct 9 class,2023.2.2,119.64250724903314,2023-10-18 12h20.00.654260 +0530,
50,c,sequential,0,0,0,0,,,,,41,2,166,2,408.7658658750006,,,,,,,,,,,,,,408.7590538749937,0.5992760420194827,409.39280487498036,c,1,0.033338749955873936,None,kruti,001,2023-10-18_12h19.52.487,oct 9 class,2023.2.2,119.64250724903314,2023-10-18 12h20.00.654260 +0530,
150,v,sequential,0,0,0,0,,,,,41,3,167,3,409.4010953750112,,,,,,,,,,,,,,409.39356308302376,0.6059256250155158,410.15913962502964,v,1,0.1550580829498358,None,kruti,001,2023-10-18_12h19.52.487,oct 9 class,2023.2.2,119.64250724903314,2023-10-18 12h20.00.654260 +0530,
-150,z,sequential,0,0,0,0,,,,,42,0,168,0,410.16790812503314,,,,,,,,,,,,,,410.15992733300664,0.6058005840168335,410.89987554203253,z,1,0.1302683330141008,None,kruti,001,2023-10-18_12h19.52.487,oct 9 class,2023.2.2,119.64250724903314,2023-10-18 12h20.00.654260 +0530,
-50,x,sequential,0,0,0,0,,,,,42,1,169,1,410.908397332998,,,,,,,,,,,,,,410.9006424580002,0.6070721669821069,411.7330322500202,x,1,0.22292320796987042,None,kruti,001,2023-10-18_12h19.52.487,oct 9 class,2023.2.2,119.64250724903314,2023-10-18 12h20.00.654260 +0530,
50,c,sequential,0,0,0,0,,,,,42,2,170,2,411.7420209579868,,,,,,,,,,,,,,411.73378233303083,0.607615708024241,412.5169798330171,c,1,0.17375233297934756,None,kruti,001,2023-10-18_12h19.52.487,oct 9 class,2023.2.2,119.64250724903314,2023-10-18 12h20.00.654260 +0530,
150,v,sequential,0,0,0,0,,,,,42,3,171,3,412.5263536249986,,,,,,,,,,,,,,412.51774895802373,0.6070774999679998,413.30125975003466,v,1,0.1669535000110045,None,kruti,001,2023-10-18_12h19.52.487,oct 9 class,2023.2.2,119.64250724903314,2023-10-18 12h20.00.654260 +0530,
-150,z,sequential,0,0,0,0,,,,,43,0,172,0,413.30852308298927,,,,,,,,,,,,,,413.3020499580307,0.6059684589854442,414.20133499999065,z,1,0.2838775410200469,None,kruti,001,2023-10-18_12h19.52.487,oct 9 class,2023.2.2,119.64250724903314,2023-10-18 12h20.00.654260 +0530,
-50,x,sequential,0,0,0,0,,,,,43,1,173,1,414.2085846249829,,,,,,,,,,,,,,414.20209504198283,0.6061883749789558,415.0166044170037,x,1,0.20600220799678937,None,kruti,001,2023-10-18_12h19.52.487,oct 9 class,2023.2.2,119.64250724903314,2023-10-18 12h20.00.654260 +0530,
50,c,sequential,0,0,0,0,,,,,43,2,174,2,415.0255889170221,,,,,,,,,,,,,,415.01738012500573,0.6073796669952571,415.9760317080072,c,1,0.34196520800469443,None,kruti,001,2023-10-18_12h19.52.487,oct 9 class,2023.2.2,119.64250724903314,2023-10-18 12h20.00.654260 +0530,
150,v,sequential,0,0,0,0,,,,,43,3,175,3,415.98248004203197,,,,,,,,,,,,,,415.9767935000127,0.6055216249660589,416.8821737500257,v,1,0.29436516703572124,None,kruti,001,2023-10-18_12h19.52.487,oct 9 class,2023.2.2,119.64250724903314,2023-10-18 12h20.00.654260 +0530,
-150,z,sequential,0,0,0,0,,,,,44,0,176,0,416.89101808302803,,,,,,,,,,,,,,416.8829588330118,0.5994248749921098,417.72494854201796,z,1,0.23454462498193607,None,kruti,001,2023-10-18_12h19.52.487,oct 9 class,2023.2.2,119.64250724903314,2023-10-18 12h20.00.654260 +0530,
-50,x,sequential,0,0,0,0,,,,,44,1,177,1,417.73283579200506,,,,,,,,,,,,,,417.7257056669914,0.6051627920242026,418.491570083017,x,1,0.15069041698006913,None,kruti,001,2023-10-18_12h19.52.487,oct 9 class,2023.2.2,119.64250724903314,2023-10-18 12h20.00.654260 +0530,
50,c,sequential,0,0,0,0,,,,,44,2,178,2,418.4991075830185,,,,,,,,,,,,,,418.4923027079785,0.6058719159918837,419.29328762501245,c,1,0.18771179195027798,None,kruti,001,2023-10-18_12h19.52.487,oct 9 class,2023.2.2,119.64250724903314,2023-10-18 12h20.00.654260 +0530,
150,v,sequential,0,0,0,0,,,,,44,3,179,3,419.3047412500018,,,,,,,,,,,,,,419.29549925000174,0.6026145829819143,420.1659810420242,v,1,0.26368158299010247,None,kruti,001,2023-10-18_12h19.52.487,oct 9 class,2023.2.2,119.64250724903314,2023-10-18 12h20.00.654260 +0530,
